"X1","Timestamp","Trial","Subj.ID","M.F","Age","Practice.or.Exp","Trial.Type","Lock.Type","Movie.Index.in.Matlab","Movie.Filename","Movie.Response.Type","fps","Preview.Duration","Preview.Frames","nFramesDropped","X..Duplicate.Frames","Cue.Time.From.File","Rounded.Cue.Time.from.File","Requested.Start","Requested.End","Start.Subtract..Correction.","Actual.Start","Actual.End","Subject.response","Correct","Requested.ITI","Actual.ITI","RT..minus.mask.dur.","Mask.Duration","Staircase.number","Staircase.trial.number","Current.staircase.level","Current.step.size","Step.direction","Reversal","X","correct","gender","label","age_group"
"1","04.17.2018 11.16.47.496",21,1,"M",65,"experiment","Detect","Cue-Locked",500,"noaudio_c_no_event_209.mp4","N",29.97003,0.75,22,0,1,NA,NA,2.335667,3.069733,0,2.337335,3.069733,"N",1,0.5,0.500073,0.493506,0.25,1,1,0.75,0.166667,-1,0,NA,TRUE,"Male","Cue-Locked","55-70"
"1","04.17.2018 11.16.49.763",22,1,"M",65,"experiment","Detect","Cue-Locked",170,"noaudio_c_critical_100.mp4","b",29,0.583333,17,-1,0,0.9,0.896552,0.696552,1.282759,0,0.698276,1.275862,"b",1,0.5,0.500064,0.689545,0.25,1,2,0.583333,0.166667,-1,0,NA,TRUE,"Male","Cue-Locked","55-70"
"1","04.17.2018 11.16.52.046",23,1,"M",65,"experiment","Detect","Cue-Locked",188,"noaudio_c_critical_126.mp4","b",29.97003,0.416667,12,0,1,1.34,1.334667,1.134667,1.535067,0,1.136335,1.534867,"b",1,0.5,0.500154,0.729151,0.25,1,3,0.416667,0.166667,-1,0,NA,TRUE,"Male","Cue-Locked","55-70"
"1","04.17.2018 11.16.54.196",24,1,"M",65,"experiment","Detect","Cue-Locked",3,"noaudio_c_002_no_event.mp4","N",30,0.25,8,0,1,NA,NA,0.033333,0.3,0,0.066667,0.3,"N",1,0.5,0.500113,0.624037,0.25,1,4,0.25,0.166667,-1,0,NA,TRUE,"Male","Cue-Locked","55-70"
"1","04.17.2018 11.16.56.113",25,1,"M",65,"experiment","Detect","Cue-Locked",176,"noaudio_c_critical_106.mp4","b",30,0.083333,3,0,0,3.9,3.9,3.7,3.8,0,3.701667,3.8,"b",1,0.5,0.500037,1.085378,0.25,1,5,0.083333,0.166667,-1,0,NA,TRUE,"Male","Cue-Locked","55-70"
"1","04.17.2018 11.16.58.313",26,1,"M",65,"experiment","Detect","Response-Locked",195,"noaudio_c_critical_134.mp4","b",30,0.75,23,0,0,2.26,2.266667,1.516667,2.283333,0,1.518333,2.266667,"N",0,0.5,0.500081,0.471701,0.25,3,1,0.75,0.166667,1,0,NA,FALSE,"Male","Response-Locked","55-70"
"1","04.17.2018 11.17.00.563",27,1,"M",65,"experiment","Detect","Response-Locked",318,"noaudio_c_no_event_018.mp4","N",30,0.916667,28,0,0,NA,NA,2.8,3.733333,0,2.801667,3.733333,"N",1,0.5,0.500422,0.275775,0.25,3,2,0.916667,0.166667,-1,1,NA,TRUE,"Male","Response-Locked","55-70"
"1","04.17.2018 11.17.02.796",28,1,"M",65,"experiment","Detect","Cue-Locked",85,"noaudio_c_047_no_event_1.mp4","N",30,0.033333,1,0,0,NA,NA,2.4,2.433333,0,2.401667,2.435,"N",1,0.5,0.500271,2.370268,0.25,1,6,0.033333,0.166667,-1,0,NA,TRUE,"Male","Cue-Locked","55-70"
"1","04.17.2018 11.17.06.213",29,1,"M",65,"experiment","Detect","Response-Locked",128,"noaudio_c_critical_045.mp4","b",30,0.75,23,0,0,4.73,4.733333,3.983333,4.75,0,3.985,4.733333,"b",1,0.5,0.500123,0.700084,0.25,3,3,0.75,0.166667,0,0,NA,TRUE,"Male","Response-Locked","55-70"
"1","04.17.2018 11.17.08.696",30,1,"M",65,"experiment","Detect","Cue-Locked",358,"noaudio_c_no_event_064.mp4","N",30,0.033333,1,0,0,NA,NA,4.666667,4.7,0,4.668333,4.701667,"N",1,0.5,0.500238,3.697276,0.25,1,7,0.033333,0.166667,-1,0,NA,TRUE,"Male","Cue-Locked","55-70"
"1","04.17.2018 11.17.13.446",31,1,"M",65,"experiment","Detect","Response-Locked",453,"noaudio_c_no_event_159.mp4","N",24,0.75,18,3,0,NA,NA,6.375,7.125,0,6.377083,7.125,"N",1,0.5,0.500248,0.544539,0.25,3,4,0.75,0.166667,0,0,NA,TRUE,"Male","Response-Locked","55-70"
"1","04.17.2018 11.17.15.912",32,1,"M",65,"experiment","Detect","Response-Locked",226,"noaudio_c_critical_185.mp4","b",29.97003,0.75,22,0,1,6.1,6.1061,5.3561,6.090167,0,5.357768,6.072733,"N",0,0.5,0.500118,0.629654,0.25,3,5,0.75,0.166667,1,1,NA,FALSE,"Male","Response-Locked","55-70"
"1","04.17.2018 11.17.18.296",33,1,"M",65,"experiment","Detect","Response-Locked",76,"noaudio_c_042_critical_stop_roadway.mp4","b",29.97003,0.916667,27,0,1,1.9,1.9019,0.985233,1.886133,0,0.986902,1.868533,"b",1,0.5,0.500185,0.671129,0.25,3,6,0.916667,0.166667,0,0,NA,TRUE,"Male","Response-Locked","55-70"
"1","04.17.2018 11.17.20.879",34,1,"M",65,"experiment","Detect","Response-Locked",383,"noaudio_c_no_event_090.mp4","N",29.94012,0.916667,27,0,1,NA,NA,4.2084,5.1102,0,4.210122,5.080754,"N",1,0.5,0.500253,1.191263,0.25,3,7,0.916667,0.166667,0,0,NA,TRUE,"Male","Response-Locked","55-70"
"1","04.17.2018 11.17.23.995",35,1,"M",65,"experiment","Detect","Response-Locked",221,"noaudio_c_critical_174.mp4","b",24,0.916667,22,4,0,3.5,3.5,2.583333,3.5,0,2.585417,3.5,"b",1,0.5,0.499907,0.970388,0.25,3,8,0.916667,0.166667,-1,1,NA,TRUE,"Male","Response-Locked","55-70"
"1","04.17.2018 11.17.27.079",36,1,"M",65,"experiment","Detect","Cue-Locked",99,"noaudio_c_054_no_event_1.mp4","N",29.97003,0.033333,1,0,0,NA,NA,1.634967,1.668333,0,1.636635,1.670002,"N",1,0.5,0.500212,2.221711,0.25,1,8,0.033333,0.166667,-1,0,NA,TRUE,"Male","Cue-Locked","55-70"
"1","04.17.2018 11.17.30.345",37,1,"M",65,"experiment","Detect","Cue-Locked",274,"noaudio_c_critical_244.mp4","b",30,0.033333,1,0,0,1.55,1.566667,1.366667,1.4,0,1.368333,1.401667,"N",0,0.5,0.500268,1.056496,0.25,1,9,0.033333,0.166667,1,1,NA,FALSE,"Male","Cue-Locked","55-70"
"1","04.17.2018 11.17.32.462",38,1,"M",65,"experiment","Detect","Cue-Locked",466,"noaudio_c_no_event_175.mp4","N",20,0.2,4,0,0,NA,NA,6.85,7.05,0,6.8525,7.05,"N",1,0.5,0.500123,1.743818,0.25,1,10,0.2,0.166667,0,0,NA,TRUE,"Male","Cue-Locked","55-70"
"1","04.17.2018 11.17.35.428",39,1,"M",65,"experiment","Detect","Response-Locked",84,"noaudio_c_047_critical_pedestrian.mp4","b",30,0.791667,24,0,0,5.2,5.2,4.408333,5.208333,0,4.41,5.2,"b",1,0.5,0.500105,0.827592,0.25,3,9,0.791667,0.125,0,0,NA,TRUE,"Male","Response-Locked","55-70"
"1","04.17.2018 11.17.38.079",40,1,"M",65,"experiment","Detect","Response-Locked",354,"noaudio_c_no_event_059.mp4","N",30,0.791667,24,0,0,NA,NA,6.733333,7.533333,0,6.735,7.533333,"N",1,0.5,0.500118,0.930965,0.25,3,10,0.791667,0.125,0,0,NA,TRUE,"Male","Response-Locked","55-70"
"1","04.17.2018 11.17.40.828",41,1,"M",65,"experiment","Detect","Cue-Locked",41,"noaudio_c_022_no_event_1.mp4","N",30,0.2,6,0,1,NA,NA,0.166667,0.366667,0,0.168333,0.333333,"N",1,0.5,0.500111,1.789019,0.25,1,11,0.2,0.166667,0,0,NA,TRUE,"Male","Cue-Locked","55-70"
"1","04.17.2018 11.17.43.845",42,1,"M",65,"experiment","Detect","Response-Locked",364,"noaudio_c_no_event_069.mp4","N",29.97003,0.791667,24,0,0,NA,NA,4.571233,5.372033,0,4.572902,5.372033,"N",1,0.5,0.50009,0.50883,0.25,3,11,0.791667,0.125,-1,0,NA,TRUE,"Male","Response-Locked","55-70"
"1","04.17.2018 11.17.46.178",43,1,"M",65,"experiment","Detect","Cue-Locked",34,"noaudio_c_018_no_event_1.mp4","N",30,0.2,6,0,0,NA,NA,6.666667,6.866667,0,6.668333,6.866667,"N",1,0.5,0.499922,0.907087,0.25,1,12,0.2,0.166667,-1,1,NA,TRUE,"Male","Cue-Locked","55-70"
"1","04.17.2018 11.17.48.311",44,1,"M",65,"experiment","Detect","Cue-Locked",210,"noaudio_c_critical_159.mp4","b",24,0.033333,1,0,0,0.73,0.75,0.55,0.591667,0,0.552083,0.59375,"N",0,0.5,0.500108,1.242775,0.25,1,13,0.033333,0.166667,1,1,NA,FALSE,"Male","Cue-Locked","55-70"
"1","04.17.2018 11.17.50.628",45,1,"M",65,"experiment","Detect","Response-Locked",470,"noaudio_c_no_event_179.mp4","N",25,0.666667,17,-3,0,NA,NA,7.04,7.72,0,7.042,7.72,"N",1,0.5,0.500005,0.400429,0.25,3,12,0.666667,0.125,0,0,NA,TRUE,"Male","Response-Locked","55-70"
"1","04.17.2018 11.17.52.611",46,1,"M",65,"experiment","Detect","Cue-Locked",350,"noaudio_c_no_event_054b.mp4","N",25,0.158333,4,0,0,NA,NA,4.56,4.72,0,4.562,4.72,"b",0,0.5,0.500103,1.200856,0.25,1,14,0.158333,0.125,1,0,NA,FALSE,"Male","Cue-Locked","55-70"
"1","04.17.2018 11.17.54.961",47,1,"M",65,"experiment","Detect","Cue-Locked",145,"noaudio_c_critical_064.mp4","b",30,0.283333,9,0,0,1.53,1.533333,1.333333,1.633333,0,1.335,1.633333,"N",0,0.5,0.500145,1.403896,0.25,1,15,0.283333,0.125,1,0,NA,FALSE,"Male","Cue-Locked","55-70"
"1","04.17.2018 11.17.57.678",48,1,"M",65,"experiment","Detect","Response-Locked",273,"noaudio_c_critical_243.mp4","b",29.97003,0.666667,20,0,0,2.7,2.7027,2.036033,2.703367,0,2.037702,2.7027,"b",1,0.5,0.500203,0.530811,0.25,3,13,0.666667,0.125,0,0,NA,TRUE,"Male","Response-Locked","55-70"
"1","04.17.2018 11.17.59.895",49,1,"M",65,"experiment","Detect","Response-Locked",222,"noaudio_c_critical_177.mp4","b",30,0.666667,20,0,0,6.6,6.6,5.933333,6.6,0,5.935,6.6,"b",1,0.5,0.50063,1.000701,0.25,3,14,0.666667,0.125,-1,0,NA,TRUE,"Male","Response-Locked","55-70"
"1","04.17.2018 11.18.02.578",50,1,"M",65,"experiment","Detect","Cue-Locked",129,"noaudio_c_critical_046.mp4","b",29.75,0.408333,12,0,0,2.1,2.084034,1.884034,2.287395,0,1.885766,2.287457,"b",1,0.5,0.50018,0.695471,0.25,1,16,0.408333,0.125,0,0,NA,TRUE,"Male","Cue-Locked","55-70"
"1","04.17.2018 11.18.04.694",51,1,"M",65,"experiment","Detect","Cue-Locked",288,"noaudio_c_critical_270.mp4","b",29.97003,0.408333,12,0,0,3.1,3.1031,2.9031,3.3035,0,2.904768,3.3033,"b",1,0.5,0.500571,1.006582,0.25,1,17,0.408333,0.125,0,0,NA,TRUE,"Male","Cue-Locked","55-70"
"1","04.17.2018 11.18.07.128",52,1,"M",65,"experiment","Detect","Cue-Locked",455,"noaudio_c_no_event_163.mp4","N",29.97003,0.408333,12,0,0,NA,NA,6.840167,7.240567,0,6.841835,7.240567,"N",1,0.5,0.500213,0.739782,0.25,1,18,0.408333,0.125,-1,1,NA,TRUE,"Male","Cue-Locked","55-70"
"1","04.17.2018 11.18.09.278",53,1,"M",65,"experiment","Detect","Cue-Locked",299,"noaudio_c_critical_283.mp4","b",30,0.283333,9,0,0,5.7,5.7,5.5,5.8,0,5.501667,5.8,"N",0,0.5,0.500571,1.103906,0.25,1,19,0.283333,0.125,1,1,NA,FALSE,"Male","Cue-Locked","55-70"
"1","04.17.2018 11.18.11.694",54,1,"M",65,"experiment","Detect","Response-Locked",196,"noaudio_c_critical_135.mp4","b",30,0.541667,16,0,1,4.13,4.133333,3.591667,4.125,0,3.593333,4.1,"N",0,0.5,0.50024,0.634824,0.25,3,15,0.541667,0.125,1,1,NA,FALSE,"Male","Response-Locked","55-70"
"1","04.17.2018 11.18.13.878",55,1,"M",65,"experiment","Detect","Cue-Locked",310,"noaudio_c_no_event_008.mp4","N",30,0.408333,12,0,0,NA,NA,4.033333,4.433333,0,4.035,4.433333,"N",1,0.5,0.500365,0.52345,0.25,1,20,0.408333,0.125,0,0,NA,TRUE,"Male","Cue-Locked","55-70"
"1","04.17.2018 11.18.15.828",56,1,"M",65,"experiment","Detect","Response-Locked",335,"noaudio_c_no_event_040.mp4","N",29.97003,0.666667,20,0,1,NA,NA,0.133467,0.8008,0,0.135135,0.767433,"N",1,0.5,0.500267,0.448396,0.25,3,16,0.666667,0.125,0,0,NA,TRUE,"Male","Response-Locked","55-70"
"1","04.17.2018 11.18.17.961",57,1,"M",65,"experiment","Detect","Response-Locked",294,"noaudio_c_critical_278.mp4","b",29.97003,0.666667,20,0,0,3.75,3.737067,3.0704,3.737733,0,3.072068,3.737067,"b",1,0.5,0.500279,0.637147,0.25,3,17,0.666667,0.125,0,0,NA,TRUE,"Male","Response-Locked","55-70"
"1","04.17.2018 11.18.20.277",58,1,"M",65,"experiment","Detect","Response-Locked",14,"noaudio_c_008_critical_driver_hits_sign.mp4","b",29.97003,0.666667,20,0,0,7.9,7.9079,7.241233,7.908567,0,7.242902,7.9079,"b",1,0.5,0.500104,0.705965,0.25,3,18,0.666667,0.125,-1,1,NA,TRUE,"Male","Response-Locked","55-70"
"1","04.17.2018 11.18.22.660",59,1,"M",65,"experiment","Detect","Cue-Locked",317,"noaudio_c_no_event_016.mp4","N",30,0.408333,12,0,0,NA,NA,7.433333,7.833333,0,7.435,7.833333,"N",1,0.5,0.500295,1.148541,0.25,1,21,0.408333,0.125,0,0,NA,TRUE,"Male","Cue-Locked","55-70"
"1","04.17.2018 11.18.25.228",60,1,"M",65,"experiment","Detect","Response-Locked",469,"noaudio_c_no_event_178.mp4","N",24.096386,0.541667,13,2,0,NA,NA,3.6935,4.233,0,3.69562,4.235272,"N",1,0.5,0.50048,0.390785,0.25,3,19,0.541667,0.125,0,0,NA,TRUE,"Male","Response-Locked","55-70"
"1","04.17.2018 11.18.27.294",61,1,"M",65,"experiment","Detect","Response-Locked",300,"noaudio_c_critical_284.mp4","b",30,0.541667,16,0,1,3.4,3.4,2.858333,3.391667,0,2.86,3.366667,"b",1,0.5,0.500178,0.709162,0.25,3,20,0.541667,0.125,0,0,NA,TRUE,"Male","Response-Locked","55-70"
"1","04.17.2018 11.18.29.561",62,1,"M",65,"experiment","Detect","Cue-Locked",57,"noaudio_c_032_no_event_1.mp4","N",30,0.408333,12,0,0,NA,NA,5.766667,6.166667,0,5.768333,6.166667,"N",1,0.5,0.500429,0.457306,0.25,1,22,0.408333,0.125,-1,1,NA,TRUE,"Male","Cue-Locked","55-70"
"1","04.17.2018 11.18.31.444",63,1,"M",65,"experiment","Detect","Response-Locked",179,"noaudio_c_critical_110.mp4","b",29.97003,0.541667,16,0,1,2.8,2.8028,2.261133,2.795,0,2.262802,2.769433,"b",1,0.5,0.500386,0.911033,0.25,3,21,0.541667,0.125,-1,0,NA,TRUE,"Male","Response-Locked","55-70"
"1","04.17.2018 11.18.33.910",64,1,"M",65,"experiment","Detect","Cue-Locked",501,"noaudio_c_no_event_210.mp4","N",29.97003,0.314583,9,0,0,NA,NA,5.372033,5.672333,0,5.373702,5.672333,"N",1,0.5,0.50019,1.109231,0.25,1,23,0.314583,0.09375,0,0,NA,TRUE,"Male","Cue-Locked","55-70"
"1","04.17.2018 11.18.36.344",65,1,"M",65,"experiment","Detect","Cue-Locked",502,"noaudio_c_no_event_211.mp4","N",29.97003,0.314583,9,0,0,NA,NA,7.474133,7.774433,0,7.475802,7.774433,"N",1,0.5,0.500355,0.72769,0.25,1,24,0.314583,0.09375,0,0,NA,TRUE,"Male","Cue-Locked","55-70"
"1","04.17.2018 11.18.38.394",66,1,"M",65,"experiment","Detect","Cue-Locked",169,"noaudio_c_critical_099.mp4","b",30,0.314583,9,0,0,3,3,2.8,3.1,0,2.801667,3.1,"b",1,0.5,0.50019,0.718561,0.25,1,25,0.314583,0.09375,-1,0,NA,TRUE,"Male","Cue-Locked","55-70"
"1","04.17.2018 11.18.40.427",67,1,"M",65,"experiment","Detect","Response-Locked",88,"noaudio_c_049_no_event_2.mp4","N",30,0.416667,12,0,1,NA,NA,1.633333,2.033333,0,1.635,2.033333,"N",1,0.5,0.500191,1.0512,0.25,3,22,0.416667,0.125,0,0,NA,TRUE,"Male","Response-Locked","55-70"
"1","04.17.2018 11.18.42.893",68,1,"M",65,"experiment","Detect","Response-Locked",279,"noaudio_c_critical_253.mp4","b",29.97003,0.416667,12,0,1,4.2,4.2042,3.787533,4.187933,0,3.789202,4.170833,"b",1,0.5,0.500169,0.684855,0.25,3,23,0.416667,0.125,0,0,NA,TRUE,"Male","Response-Locked","55-70"
"1","04.17.2018 11.18.44.993",69,1,"M",65,"experiment","Detect","Response-Locked",97,"noaudio_c_053_no_event_1.mp4","N",29.97003,0.416667,12,0,1,NA,NA,1.468133,1.868533,0,1.469802,1.868533,"N",1,0.5,0.500096,1.07062,0.25,3,24,0.416667,0.125,-1,0,NA,TRUE,"Male","Response-Locked","55-70"
"1","04.17.2018 11.18.47.477",70,1,"M",65,"experiment","Detect","Response-Locked",331,"noaudio_c_no_event_039.mp4","N",30,0.291667,9,0,0,NA,NA,0.633333,0.933333,0,0.635,0.933333,"N",1,0.5,0.500168,1.088249,0.25,3,25,0.291667,0.125,0,0,NA,TRUE,"Male","Response-Locked","55-70"
"1","04.17.2018 11.19.10.209",71,1,"M",65,"experiment","Detect","Cue-Locked",474,"noaudio_c_no_event_183.mp4","N",30,0.220833,7,0,0,NA,NA,6.333333,6.566667,0,6.335,6.566667,"N",1,0.5,0.500068,0.528911,0.25,1,26,0.220833,0.09375,0,0,NA,TRUE,"Male","Cue-Locked","55-70"
"1","04.17.2018 11.19.11.993",72,1,"M",65,"experiment","Detect","Response-Locked",392,"noaudio_c_no_event_101.mp4","N",30,0.291667,9,0,0,NA,NA,2.933333,3.233333,0,2.935,3.233333,"N",1,0.5,0.500085,0.366913,0.25,3,26,0.291667,0.125,0,0,NA,TRUE,"Male","Response-Locked","55-70"
"1","04.17.2018 11.19.13.676",73,1,"M",65,"experiment","Detect","Response-Locked",471,"noaudio_c_no_event_180.mp4","N",30,0.291667,9,0,0,NA,NA,2.1,2.4,0,2.101667,2.4,"N",1,0.5,0.50011,0.425064,0.25,3,27,0.291667,0.125,-1,0,NA,TRUE,"Male","Response-Locked","55-70"
"1","04.17.2018 11.19.15.426",74,1,"M",65,"experiment","Detect","Response-Locked",395,"noaudio_c_no_event_106.mp4","N",30,0.166667,5,0,0,NA,NA,2.7,2.866667,0,2.701667,2.866667,"N",1,0.5,0.500128,0.770625,0.25,3,28,0.166667,0.125,0,0,NA,TRUE,"Male","Response-Locked","55-70"
"1","04.17.2018 11.19.17.376",75,1,"M",65,"experiment","Detect","Response-Locked",387,"noaudio_c_no_event_097.mp4","N",29.585799,0.166667,5,0,0,NA,NA,6.1516,6.3206,0,6.153296,6.321124,"N",1,0.5,0.500248,0.720418,0.25,3,29,0.166667,0.125,0,0,NA,TRUE,"Male","Response-Locked","55-70"
"1","04.17.2018 11.19.19.276",76,1,"M",65,"experiment","Detect","Cue-Locked",430,"noaudio_c_no_event_140.mp4","N",29.97003,0.220833,7,0,0,NA,NA,7.340667,7.574233,0,7.342335,7.574233,"N",1,0.5,0.500203,0.693632,0.25,1,27,0.220833,0.09375,0,0,NA,TRUE,"Male","Cue-Locked","55-70"
"1","04.17.2018 11.19.21.226",77,1,"M",65,"experiment","Detect","Cue-Locked",477,"noaudio_c_no_event_188.mp4","N",29.97003,0.220833,7,0,0,NA,NA,4.637967,4.871533,0,4.639635,4.871533,"N",1,0.5,0.500201,0.713257,0.25,1,28,0.220833,0.09375,-1,0,NA,TRUE,"Male","Cue-Locked","55-70"
"1","04.17.2018 11.19.23.192",78,1,"M",65,"experiment","Detect","Cue-Locked",45,"noaudio_c_025_critical_turning.mp4","b",24,0.127083,3,0,0,3.167,3.166667,2.966667,3.091667,0,2.96875,3.083333,"b",1,0.5,0.50012,0.978984,0.25,1,29,0.127083,0.09375,0,0,NA,TRUE,"Male","Cue-Locked","55-70"
"1","04.17.2018 11.19.25.342",79,1,"M",65,"experiment","Detect","Cue-Locked",46,"noaudio_c_025_no_event_1.mp4","N",24,0.127083,3,0,0,NA,NA,6.875,7,0,6.877083,7,"N",1,0.5,0.50001,0.862536,0.25,1,30,0.127083,0.09375,0,0,NA,TRUE,"Male","Cue-Locked","55-70"
"1","04.17.2018 11.19.27.375",80,1,"M",65,"experiment","Detect","Cue-Locked",149,"noaudio_c_critical_070.mp4","b",29.97003,0.127083,4,0,0,5.05,5.038367,4.838367,4.971833,0,4.840035,4.971633,"N",0,0.5,0.500543,0.776729,0.25,1,31,0.127083,0.09375,1,1,NA,FALSE,"Male","Cue-Locked","55-70"
"1","04.17.2018 11.19.29.309",81,1,"M",65,"experiment","Detect","Response-Locked",438,"noaudio_c_no_event_147b.mp4","N",24,0.166667,4,1,0,NA,NA,6.708333,6.875,0,6.710417,6.875,"N",1,0.5,0.500112,0.833858,0.25,3,30,0.166667,0.125,-1,0,NA,TRUE,"Male","Response-Locked","55-70"
"1","04.17.2018 11.19.31.359",82,1,"M",65,"experiment","Detect","Response-Locked",66,"noaudio_c_037_critical_swerve.mp4","b",30,0.041667,1,0,0,6.2,6.2,6.158333,6.191667,0,6.16,6.193333,"N",0,0.5,0.500121,2.324794,0.25,3,31,0.041667,0.125,1,1,NA,FALSE,"Male","Response-Locked","55-70"
"1","04.17.2018 11.19.34.742",83,1,"M",65,"experiment","Detect","Response-Locked",51,"noaudio_c_028_no_event_1.mp4","N",29.97003,0.135417,4,0,0,NA,NA,6.039367,6.172833,0,6.041035,6.172833,"N",1,0.5,0.500143,0.62642,0.25,3,32,0.135417,0.09375,0,0,NA,TRUE,"Male","Response-Locked","55-70"
"1","04.17.2018 11.19.36.525",84,1,"M",65,"experiment","Detect","Response-Locked",33,"noaudio_c_018_critical_swerve.mp4","b",30,0.135417,4,0,1,5.45,5.466667,5.33125,5.464583,0,5.332917,5.433333,"b",1,0.5,0.500115,1.156786,0.25,3,33,0.135417,0.09375,0,0,NA,TRUE,"Male","Response-Locked","55-70"
"1","04.17.2018 11.19.38.842",85,1,"M",65,"experiment","Detect","Cue-Locked",231,"noaudio_c_critical_191.mp4","b",30,0.220833,7,0,0,1.5,1.5,1.3,1.533333,0,1.301667,1.533333,"b",1,0.5,0.500205,0.563399,0.25,1,32,0.220833,0.09375,0,0,NA,TRUE,"Male","Cue-Locked","55-70"
"1","04.17.2018 11.19.40.658",86,1,"M",65,"experiment","Detect","Cue-Locked",260,"noaudio_c_critical_227.mp4","b",25,0.220833,6,0,0,4.1,4.08,3.88,4.12,0,3.882,4.12,"b",1,0.5,0.500071,0.497439,0.25,1,33,0.220833,0.09375,0,0,NA,TRUE,"Male","Cue-Locked","55-70"
"1","04.17.2018 11.19.42.392",87,1,"M",65,"experiment","Detect","Cue-Locked",332,"noaudio_c_no_event_039b.mp4","N",30,0.220833,7,0,0,NA,NA,6.933333,7.166667,0,6.935,7.166667,"N",1,0.5,0.500053,0.804311,0.25,1,34,0.220833,0.09375,-1,1,NA,TRUE,"Male","Cue-Locked","55-70"
"1","04.17.2018 11.19.44.442",88,1,"M",65,"experiment","Detect","Cue-Locked",156,"noaudio_c_critical_081.mp4","b",25,0.127083,3,0,0,3.44,3.44,3.24,3.36,0,3.242,3.36,"N",0,0.5,0.500152,0.732648,0.25,1,35,0.127083,0.09375,1,1,NA,FALSE,"Male","Cue-Locked","55-70"
"1","04.17.2018 11.19.46.292",89,1,"M",65,"experiment","Detect","Cue-Locked",237,"noaudio_c_critical_200.mp4","b",30,0.197396,6,0,0,3,3,2.8,3,0,2.801667,3,"N",0,0.5,0.500121,0.802876,0.25,1,36,0.197396,0.070312,1,0,NA,FALSE,"Male","Cue-Locked","55-70"
"1","04.17.2018 11.19.48.308",90,1,"M",65,"experiment","Detect","Response-Locked",327,"noaudio_c_no_event_033.mp4","N",30,0.135417,4,0,0,NA,NA,6.9,7.033333,0,6.901667,7.033333,"N",1,0.5,0.500075,0.630631,0.25,3,34,0.135417,0.09375,-1,1,NA,TRUE,"Male","Response-Locked","55-70"
"1","04.17.2018 11.19.50.092",91,1,"M",65,"experiment","Detect","Response-Locked",352,"noaudio_c_no_event_057.mp4","N",29.97003,0.041667,1,0,0,NA,NA,3.069733,3.1031,0,3.071402,3.104768,"N",1,0.5,0.500605,0.850879,0.25,3,35,0.041667,0.09375,0,0,NA,TRUE,"Male","Response-Locked","55-70"
"1","04.17.2018 11.19.51.991",92,1,"M",65,"experiment","Detect","Cue-Locked",139,"noaudio_c_critical_057.mp4","b",29.97003,0.267708,8,0,0,0.7,0.7007,0.5007,0.767633,0,0.502368,0.767433,"b",1,0.5,0.500077,0.860404,0.25,1,37,0.267708,0.070312,0,0,NA,TRUE,"Male","Cue-Locked","55-70"
"1","04.17.2018 11.19.54.191",93,1,"M",65,"experiment","Detect","Cue-Locked",154,"noaudio_c_critical_079.mp4","b",28.75,0.267708,8,0,0,1.25,1.252174,1.052174,1.330435,0,1.053918,1.321829,"b",1,0.5,0.500102,0.54021,0.25,1,38,0.267708,0.070312,0,0,NA,TRUE,"Male","Cue-Locked","55-70"
"1","04.17.2018 11.19.56.025",94,1,"M",65,"experiment","Detect","Response-Locked",79,"noaudio_c_044_no_event_1.mp4","N",29.97003,0.041667,1,0,0,NA,NA,7.874533,7.9079,0,7.876202,7.909568,"N",1,0.5,0.500159,1.095936,0.25,3,36,0.041667,0.09375,0,0,NA,TRUE,"Male","Response-Locked","55-70"
"1","04.17.2018 11.19.58.225",95,1,"M",65,"experiment","Detect","Cue-Locked",166,"noaudio_c_critical_094.mp4","b",30,0.267708,8,0,0,5.25,5.266667,5.066667,5.333333,0,5.068333,5.333333,"N",0,0.5,0.500119,0.995437,0.25,1,39,0.267708,0.070312,1,0,NA,FALSE,"Male","Cue-Locked","55-70"
"1","04.17.2018 11.20.00.508",96,1,"M",65,"experiment","Detect","Response-Locked",200,"noaudio_c_critical_140.mp4","b",29.97003,0.041667,1,0,0,2.02,2.035367,1.9937,2.027067,0,1.995368,2.028735,"N",0,0.5,0.500381,0.839246,0.25,3,37,0.041667,0.09375,1,1,NA,FALSE,"Male","Response-Locked","55-70"
"1","04.17.2018 11.20.02.458",97,1,"M",65,"experiment","Detect","Response-Locked",356,"noaudio_c_no_event_062.mp4","N",29.97003,0.135417,4,0,0,NA,NA,2.9029,3.036367,0,2.904568,3.036367,"b",0,0.5,0.500178,1.24072,0.25,3,38,0.135417,0.09375,1,0,NA,FALSE,"Male","Response-Locked","55-70"
"1","04.17.2018 11.20.04.858",98,1,"M",65,"experiment","Detect","Cue-Locked",497,"noaudio_c_no_event_206.mp4","N",29.97003,0.338021,10,0,0,NA,NA,3.9039,4.237567,0,3.905568,4.237567,"b",0,0.5,0.50003,0.963498,0.25,1,40,0.338021,0.070312,1,0,NA,FALSE,"Male","Cue-Locked","55-70"
"1","04.17.2018 11.20.07.224",99,1,"M",65,"experiment","Detect","Response-Locked",5,"noaudio_c_004_critical_pedestrian.mp4","b",30,0.229167,7,0,0,4.39,4.4,4.170833,4.404167,0,4.1725,4.4,"b",1,0.5,0.500033,0.730916,0.25,3,39,0.229167,0.09375,0,0,NA,TRUE,"Male","Response-Locked","55-70"
"1","04.17.2018 11.20.09.208",100,1,"M",65,"experiment","Detect","Response-Locked",487,"noaudio_c_no_event_197.mp4","N",29.97003,0.229167,7,0,0,NA,NA,1.468133,1.7017,0,1.469802,1.7017,"N",1,0.5,0.500102,0.811739,0.25,3,40,0.229167,0.09375,0,0,NA,TRUE,"Male","Response-Locked","55-70"
"1","04.17.2018 11.20.11.274",101,1,"M",65,"experiment","Detect","Cue-Locked",489,"noaudio_c_no_event_198b.mp4","N",29.97003,0.408333,12,0,0,NA,NA,6.973633,7.374033,0,6.975302,7.374033,"N",1,0.5,0.499925,0.652361,0.25,1,41,0.408333,0.070312,0,0,NA,TRUE,"Male","Cue-Locked","55-70"
"1","04.17.2018 11.20.13.341",102,1,"M",65,"experiment","Detect","Response-Locked",211,"noaudio_c_critical_160.mp4","b",30,0.229167,7,0,0,3.5,3.5,3.270833,3.504167,0,3.2725,3.5,"b",1,0.5,0.500081,0.857016,0.25,3,41,0.229167,0.09375,-1,1,NA,TRUE,"Male","Response-Locked","55-70"
"1","04.17.2018 11.20.15.457",103,1,"M",65,"experiment","Detect","Cue-Locked",461,"noaudio_c_no_event_170.mp4","N",29.97003,0.408333,12,0,0,NA,NA,5.472133,5.872533,0,5.473802,5.872533,"N",1,0.5,0.500028,0.413765,0.25,1,42,0.408333,0.070312,0,0,NA,TRUE,"Male","Cue-Locked","55-70"
"1","04.17.2018 11.20.17.324",104,1,"M",65,"experiment","Detect","Cue-Locked",402,"noaudio_c_no_event_114.mp4","N",30,0.408333,12,0,0,NA,NA,0.566667,0.966667,0,0.568333,0.966667,"N",1,0.5,0.500294,0.565443,0.25,1,43,0.408333,0.070312,-1,1,NA,TRUE,"Male","Cue-Locked","55-70"
"1","04.17.2018 11.20.19.357",105,1,"M",65,"experiment","Detect","Response-Locked",229,"noaudio_c_critical_188.mp4","b",29.97003,0.158854,5,0,0,3.2,3.2032,3.044346,3.211179,0,3.046014,3.2032,"N",0,0.5,0.500251,0.86308,0.25,3,42,0.158854,0.070312,1,1,NA,FALSE,"Male","Response-Locked","55-70"
"1","04.17.2018 11.20.21.407",106,1,"M",65,"experiment","Detect","Response-Locked",370,"noaudio_c_no_event_075.mp4","N",29.97003,0.229167,7,0,0,NA,NA,3.169833,3.4034,0,3.171502,3.4034,"N",1,0.5,0.500073,0.815867,0.25,3,43,0.229167,0.070312,0,0,NA,TRUE,"Male","Response-Locked","55-70"
"1","04.17.2018 11.20.23.474",107,1,"M",65,"experiment","Detect","Response-Locked",75,"noaudio_c_041_no_event_3.mp4","N",30,0.229167,7,0,0,NA,NA,1.166667,1.4,0,1.168333,1.4,"N",1,0.5,0.500086,0.717937,0.25,3,44,0.229167,0.070312,0,0,NA,TRUE,"Male","Response-Locked","55-70"
"1","04.17.2018 11.20.25.440",108,1,"M",65,"experiment","Detect","Response-Locked",321,"noaudio_c_no_event_025.mp4","N",25,0.229167,6,-1,1,NA,NA,0.04,0.28,0,0.08,0.28,"b",0,0.5,0.499869,1.567652,0.25,3,45,0.229167,0.070312,1,0,NA,FALSE,"Male","Response-Locked","55-70"
"1","04.17.2018 11.20.28.290",109,1,"M",65,"experiment","Detect","Response-Locked",115,"noaudio_c_critical_022.mp4","b",29.97003,0.299479,9,0,0,5.65,5.638967,5.339487,5.639787,0,5.341156,5.638967,"b",1,0.5,0.500288,0.637053,0.25,3,46,0.299479,0.070312,0,0,NA,TRUE,"Male","Response-Locked","55-70"
"1","04.17.2018 11.20.30.307",110,1,"M",65,"experiment","Detect","Response-Locked",232,"noaudio_c_critical_192.mp4","b",29.97003,0.299479,9,0,0,1.2,1.2012,0.901721,1.202021,0,0.903389,1.2012,"b",1,0.5,0.500069,0.65038,0.25,3,47,0.299479,0.070312,0,0,NA,TRUE,"Male","Response-Locked","55-70"
"1","04.17.2018 11.20.32.274",111,1,"M",65,"experiment","Detect","Response-Locked",259,"noaudio_c_critical_226.mp4","b",29.97003,0.299479,9,0,0,4,4.004,3.704521,4.004821,0,3.706189,4.004,"N",0,0.5,0.500102,1.288107,0.25,3,48,0.299479,0.070312,1,0,NA,FALSE,"Male","Response-Locked","55-70"
"1","04.17.2018 11.20.34.874",112,1,"M",65,"experiment","Detect","Cue-Locked",90,"noaudio_c_050_no_event_1.mp4","N",30,0.338021,10,0,0,NA,NA,3.766667,4.1,0,3.768333,4.1,"N",1,0.5,0.500664,0.466257,0.25,1,44,0.338021,0.070312,0,0,NA,TRUE,"Male","Cue-Locked","55-70"
"1","04.17.2018 11.20.36.690",113,1,"M",65,"experiment","Detect","Cue-Locked",120,"noaudio_c_critical_030.mp4","b",30,0.338021,10,0,0,7.1,7.1,6.9,7.233333,0,6.901667,7.233333,"N",0,0.5,0.500063,0.949316,0.25,1,45,0.338021,0.070312,1,1,NA,FALSE,"Male","Cue-Locked","55-70"
"1","04.17.2018 11.20.38.990",114,1,"M",65,"experiment","Detect","Cue-Locked",194,"noaudio_c_critical_133.mp4","b",25,0.408333,10,-1,0,3.5,3.52,3.32,3.72,0,3.322,3.72,"b",1,0.5,0.500071,1.066835,0.25,1,46,0.408333,0.070312,0,0,NA,TRUE,"Male","Cue-Locked","55-70"
"1","04.17.2018 11.20.41.457",115,1,"M",65,"experiment","Detect","Response-Locked",290,"noaudio_c_critical_273.mp4","b",29.97003,0.369792,11,0,1,6.6,6.6066,6.236808,6.603842,0,6.238477,6.573233,"b",1,0.5,0.499973,0.985577,0.25,3,49,0.369792,0.070312,0,0,NA,TRUE,"Male","Response-Locked","55-70"
"1","04.17.2018 11.20.43.890",116,1,"M",65,"experiment","Detect","Response-Locked",52,"noaudio_c_029_critical_swerve.mp4","b",29.97003,0.369792,11,0,1,6,6.006,5.636208,6.003242,0,5.637877,5.972633,"b",1,0.5,0.500248,0.85132,0.25,3,50,0.369792,0.070312,0,0,NA,TRUE,"Male","Response-Locked","55-70"
"1","04.17.2018 11.20.46.123",117,1,"M",65,"experiment","Detect","Response-Locked",286,"noaudio_c_critical_267.mp4","b",29.97003,0.369792,11,0,1,4.25,4.237567,3.867775,4.234808,0,3.869443,4.2042,"b",1,0.5,0.500142,0.660864,0.25,3,51,0.369792,0.070312,-1,1,NA,TRUE,"Male","Response-Locked","55-70"
"1","04.17.2018 11.20.48.173",118,1,"M",65,"experiment","Detect","Cue-Locked",113,"noaudio_c_critical_020.mp4","b",30,0.408333,12,0,0,1.76,1.766667,1.566667,1.966667,0,1.568333,1.966667,"b",1,0.5,0.500279,0.93124,0.25,1,47,0.408333,0.070312,0,0,NA,TRUE,"Male","Cue-Locked","55-70"
"1","04.17.2018 11.20.50.540",119,1,"M",65,"experiment","Detect","Response-Locked",450,"noaudio_c_no_event_156.mp4","N",29.97003,0.299479,9,0,0,NA,NA,4.437767,4.738067,0,4.439435,4.738067,"N",1,0.5,0.500513,0.785627,0.25,3,52,0.299479,0.070312,0,0,NA,TRUE,"Male","Response-Locked","55-70"
"1","04.17.2018 11.20.52.690",120,1,"M",65,"experiment","Detect","Cue-Locked",29,"noaudio_c_015_critical_swerve_in_lane.mp4","b",29.97003,0.408333,12,0,0,2.75,2.736067,2.536067,2.936467,0,2.537735,2.936267,"b",1,0.5,0.500497,0.759103,0.25,1,48,0.408333,0.070312,-1,1,NA,TRUE,"Male","Cue-Locked","55-70"
"1","04.17.2018 11.21.12.656",121,1,"M",65,"experiment","Detect","Cue-Locked",49,"noaudio_c_027_no_event_1.mp4","N",25.5,0.355599,9,1,0,NA,NA,6.313725,6.666667,0,6.315686,6.666667,"N",1,0.5,0.500168,0.291413,0.25,1,49,0.355599,0.052734,0,0,NA,TRUE,"Male","Cue-Locked","55-70"
"1","04.17.2018 11.21.14.356",122,1,"M",65,"experiment","Detect","Response-Locked",458,"noaudio_c_no_event_166.mp4","N",29.97003,0.299479,9,0,0,NA,NA,0.734067,1.034367,0,0.735735,1.034367,"N",1,0.5,0.500076,0.45079,0.25,3,53,0.299479,0.070312,0,0,NA,TRUE,"Male","Response-Locked","55-70"
"1","04.17.2018 11.21.16.173",123,1,"M",65,"experiment","Detect","Response-Locked",297,"noaudio_c_critical_281.mp4","b",29.97003,0.299479,9,0,0,2.15,2.135467,1.835988,2.136288,0,1.837656,2.135467,"b",1,0.5,0.500004,0.962812,0.25,3,54,0.299479,0.070312,-1,0,NA,TRUE,"Male","Response-Locked","55-70"
"1","04.17.2018 11.21.18.456",124,1,"M",65,"experiment","Detect","Response-Locked",2,"noaudio_c_002_critical_pedestrian.mp4","b",30,0.229167,7,0,0,5.23,5.233333,5.004167,5.2375,0,5.005833,5.233333,"b",1,0.5,0.500116,0.534358,0.25,3,55,0.229167,0.070312,0,0,NA,TRUE,"Male","Response-Locked","55-70"
"1","04.17.2018 11.21.20.239",125,1,"M",65,"experiment","Detect","Response-Locked",464,"noaudio_c_no_event_173.mp4","N",30,0.229167,7,0,0,NA,NA,1.233333,1.466667,0,1.235,1.466667,"N",1,0.5,0.500075,0.714602,0.25,3,56,0.229167,0.070312,0,0,NA,TRUE,"Male","Response-Locked","55-70"
"1","04.17.2018 11.21.22.206",126,1,"M",65,"experiment","Detect","Response-Locked",434,"noaudio_c_no_event_144.mp4","N",30,0.229167,7,0,0,NA,NA,1.266667,1.5,0,1.268333,1.5,"N",1,0.5,0.500069,0.502967,0.25,3,57,0.229167,0.070312,-1,0,NA,TRUE,"Male","Response-Locked","55-70"
"1","04.17.2018 11.21.23.956",127,1,"M",65,"experiment","Detect","Response-Locked",59,"noaudio_c_033_critical_swerve.mp4","b",30,0.158854,5,0,0,3.65,3.666667,3.507812,3.674479,0,3.509479,3.666667,"N",0,0.5,0.500091,0.913463,0.25,3,58,0.158854,0.070312,1,1,NA,FALSE,"Male","Response-Locked","55-70"
"1","04.17.2018 11.21.26.056",128,1,"M",65,"experiment","Detect","Response-Locked",190,"noaudio_c_critical_128.mp4","b",30,0.211589,6,0,1,4.02,4.033333,3.821745,4.021745,0,3.823411,4,"b",1,0.5,0.500192,0.854693,0.25,3,59,0.211589,0.052734,0,0,NA,TRUE,"Male","Response-Locked","55-70"
"1","04.17.2018 11.21.28.122",129,1,"M",65,"experiment","Detect","Cue-Locked",394,"noaudio_c_no_event_103.mp4","N",29.97003,0.355599,11,0,0,NA,NA,5.672333,6.039367,0,5.674002,6.039367,"N",1,0.5,0.500095,0.518211,0.25,1,50,0.355599,0.052734,0,0,NA,TRUE,"Male","Cue-Locked","55-70"
"1","04.17.2018 11.21.30.072",130,1,"M",65,"experiment","Detect","Cue-Locked",346,"noaudio_c_no_event_051.mp4","N",27.39726,0.355599,10,-1,1,NA,NA,6.0225,6.3875,0,6.024403,6.357751,"N",1,0.5,0.500102,0.674284,0.25,1,51,0.355599,0.052734,-1,0,NA,TRUE,"Male","Cue-Locked","55-70"
"1","04.17.2018 11.21.32.155",131,1,"M",65,"experiment","Detect","Cue-Locked",223,"noaudio_c_critical_182.mp4","b",29.97003,0.302865,9,0,0,5.95,5.939267,5.739267,6.039567,0,5.740935,6.039367,"N",0,0.5,0.500208,0.363635,0.25,1,52,0.302865,0.052734,1,1,NA,FALSE,"Male","Cue-Locked","55-70"
"1","04.17.2018 11.21.33.872",132,1,"M",65,"experiment","Detect","Response-Locked",93,"noaudio_c_051_critical_unsignaled_turn.mp4","b",29.97003,0.211589,6,0,1,4.2,4.2042,3.992611,4.192811,0,3.99428,4.170833,"b",1,0.5,0.500128,0.817632,0.25,3,60,0.211589,0.052734,0,0,NA,TRUE,"Male","Response-Locked","55-70"
"1","04.17.2018 11.21.35.905",133,1,"M",65,"experiment","Detect","Cue-Locked",249,"noaudio_c_critical_215.mp4","b",18.333333,0.355599,7,0,0,3.6,3.6,3.4,3.781818,0,3.402727,3.763636,"N",0,0.5,0.500125,1.111493,0.25,1,53,0.355599,0.052734,1,0,NA,FALSE,"Male","Cue-Locked","55-70"
"1","04.17.2018 11.21.38.439",134,1,"M",65,"experiment","Detect","Cue-Locked",81,"noaudio_c_045_no_event_1.mp4","N",29.97003,0.408333,12,0,0,NA,NA,0.367033,0.767433,0,0.368702,0.767433,"N",1,0.5,0.500224,0.363475,0.25,1,54,0.408333,0.052734,0,0,NA,TRUE,"Male","Cue-Locked","55-70"
"1","04.17.2018 11.21.40.222",135,1,"M",65,"experiment","Detect","Response-Locked",334,"noaudio_c_no_event_039d.mp4","N",30,0.211589,6,0,0,NA,NA,7.066667,7.266667,0,7.068333,7.266667,"N",1,0.5,0.50019,0.575108,0.25,3,61,0.211589,0.052734,-1,1,NA,TRUE,"Male","Response-Locked","55-70"
"1","04.17.2018 11.21.42.022",136,1,"M",65,"experiment","Detect","Cue-Locked",429,"noaudio_c_no_event_139b.mp4","N",25,0.408333,10,-1,0,NA,NA,7.52,7.92,0,7.522,7.92,"N",1,0.5,0.50035,0.443989,0.25,1,55,0.408333,0.052734,0,0,NA,TRUE,"Male","Cue-Locked","55-70"
"1","04.17.2018 11.21.43.872",137,1,"M",65,"experiment","Detect","Response-Locked",378,"noaudio_c_no_event_084.mp4","N",30,0.158854,5,0,0,NA,NA,7.366667,7.533333,0,7.368333,7.533333,"b",0,0.5,0.500055,1.303002,0.25,3,62,0.158854,0.052734,1,1,NA,FALSE,"Male","Response-Locked","55-70"
"1","04.17.2018 11.21.46.355",138,1,"M",65,"experiment","Detect","Cue-Locked",401,"noaudio_c_no_event_113.mp4","N",29.97003,0.408333,12,0,0,NA,NA,7.173833,7.574233,0,7.175502,7.574233,"N",1,0.5,0.50004,1.440399,0.25,1,56,0.408333,0.052734,-1,1,NA,TRUE,"Male","Cue-Locked","55-70"
"1","04.17.2018 11.21.49.222",139,1,"M",65,"experiment","Detect","Cue-Locked",486,"noaudio_c_no_event_195.mp4","N",29.97003,0.355599,11,0,0,NA,NA,0.734067,1.1011,0,0.735735,1.1011,"N",1,0.5,0.500106,0.377413,0.25,1,57,0.355599,0.052734,0,0,NA,TRUE,"Male","Cue-Locked","55-70"
"1","04.17.2018 11.21.51.038",140,1,"M",65,"experiment","Detect","Cue-Locked",316,"noaudio_c_no_event_015.mp4","N",30,0.355599,11,0,0,NA,NA,0.9,1.266667,0,0.901667,1.266667,"N",1,0.5,0.500172,0.896864,0.25,1,58,0.355599,0.052734,0,0,NA,TRUE,"Male","Cue-Locked","55-70"
"1","04.17.2018 11.21.53.372",141,1,"M",65,"experiment","Detect","Response-Locked",454,"noaudio_c_no_event_161.mp4","N",29.97003,0.211589,6,0,0,NA,NA,3.670333,3.870533,0,3.672002,3.870533,"N",1,0.5,0.500313,0.533171,0.25,3,63,0.211589,0.052734,0,0,NA,TRUE,"Male","Response-Locked","55-70"
"1","04.17.2018 11.21.55.122",142,1,"M",65,"experiment","Detect","Response-Locked",140,"noaudio_c_critical_058.mp4","b",29.97003,0.211589,6,0,1,5.34,5.338667,5.127078,5.327278,0,5.128746,5.3053,"N",0,0.5,0.500208,0.894355,0.25,3,64,0.211589,0.052734,1,0,NA,FALSE,"Male","Response-Locked","55-70"
"1","04.17.2018 11.21.57.288",143,1,"M",65,"experiment","Detect","Cue-Locked",263,"noaudio_c_critical_230.mp4","b",29.97003,0.355599,11,0,0,4.44,4.437767,4.237767,4.6048,0,4.239435,4.6046,"b",1,0.5,0.500151,0.98268,0.25,1,59,0.355599,0.052734,-1,0,NA,TRUE,"Male","Cue-Locked","55-70"
"1","04.17.2018 11.21.59.655",144,1,"M",65,"experiment","Detect","Response-Locked",214,"noaudio_c_critical_166.mp4","b",29.97003,0.264323,8,0,0,6.9,6.9069,6.642577,6.90951,0,6.644245,6.9069,"b",1,0.5,0.500089,0.765954,0.25,3,65,0.264323,0.052734,0,0,NA,TRUE,"Male","Response-Locked","55-70"
"1","04.17.2018 11.22.01.772",145,1,"M",65,"experiment","Detect","Response-Locked",163,"noaudio_c_critical_091.mp4","b",30,0.264323,8,0,0,2.66,2.666667,2.402344,2.66901,0,2.40401,2.666667,"b",1,0.5,0.500438,0.672395,0.25,3,66,0.264323,0.052734,0,0,NA,TRUE,"Male","Response-Locked","55-70"
"1","04.17.2018 11.22.03.771",146,1,"M",65,"experiment","Detect","Response-Locked",342,"noaudio_c_no_event_046b.mp4","N",29.75,0.264323,8,0,1,NA,NA,2.890756,3.159664,0,2.892489,3.128443,"N",1,0.5,0.500378,0.501808,0.25,3,67,0.264323,0.052734,-1,1,NA,TRUE,"Male","Response-Locked","55-70"
"1","04.17.2018 11.22.05.571",147,1,"M",65,"experiment","Detect","Response-Locked",446,"noaudio_c_no_event_153b.mp4","N",29.5,0.224772,7,0,0,NA,NA,7.694915,7.932203,0,7.69661,7.932203,"N",1,0.5,0.500083,0.594548,0.25,3,68,0.224772,0.039551,0,0,NA,TRUE,"Male","Response-Locked","55-70"
"1","04.17.2018 11.22.07.421",148,1,"M",65,"experiment","Detect","Cue-Locked",206,"noaudio_c_critical_151.mp4","b",30,0.302865,9,0,0,2.2,2.2,2,2.3,0,2.001667,2.3,"N",0,0.5,0.50004,0.908949,0.25,1,60,0.302865,0.052734,1,1,NA,FALSE,"Male","Cue-Locked","55-70"
"1","04.17.2018 11.22.09.655",149,1,"M",65,"experiment","Detect","Response-Locked",7,"noaudio_c_004_no_event_2.mp4","N",30,0.224772,7,0,0,NA,NA,7,7.233333,0,7.001667,7.233333,"N",1,0.5,0.50018,0.526519,0.25,3,69,0.224772,0.039551,0,0,NA,TRUE,"Male","Response-Locked","55-70"
"1","04.17.2018 11.22.11.438",150,1,"M",65,"experiment","Detect","Cue-Locked",182,"noaudio_c_critical_114.mp4","b",30,0.342415,10,0,0,4.3,4.3,4.1,4.433333,0,4.101667,4.433333,"N",0,0.5,0.500112,0.367334,0.25,1,61,0.342415,0.039551,1,0,NA,FALSE,"Male","Cue-Locked","55-70"
"1","04.17.2018 11.22.13.221",151,1,"M",65,"experiment","Detect","Cue-Locked",478,"noaudio_c_no_event_189.mp4","N",30,0.381966,11,0,1,NA,NA,3.633333,4,0,3.635,4,"N",1,0.5,0.500174,0.40963,0.25,1,62,0.381966,0.039551,0,0,NA,TRUE,"Male","Cue-Locked","55-70"
"1","04.17.2018 11.22.15.071",152,1,"M",65,"experiment","Detect","Cue-Locked",178,"noaudio_c_critical_108.mp4","b",29.325513,0.381966,11,0,1,5.66,5.6606,5.4606,5.8357,0,5.46239,5.804161,"N",0,0.5,0.500344,0.418502,0.25,1,63,0.381966,0.039551,1,0,NA,FALSE,"Male","Cue-Locked","55-70"
"1","04.17.2018 11.22.16.871",153,1,"M",65,"experiment","Detect","Cue-Locked",123,"noaudio_c_critical_034.mp4","b",25,0.421517,11,-1,0,6.4,6.4,6.2,6.64,0,6.202,6.64,"b",1,0.5,0.500192,1.109825,0.25,1,64,0.421517,0.039551,0,0,NA,TRUE,"Male","Cue-Locked","55-70"
"1","04.17.2018 11.22.19.388",154,1,"M",65,"experiment","Detect","Cue-Locked",86,"noaudio_c_048_critical_swerve.mp4","b",30,0.421517,13,0,0,3.76,3.766667,3.566667,4,0,3.568333,4,"b",1,0.5,0.500223,1.282583,0.25,1,65,0.421517,0.039551,0,0,NA,TRUE,"Male","Cue-Locked","55-70"
"1","04.17.2018 11.22.22.187",155,1,"M",65,"experiment","Detect","Cue-Locked",499,"noaudio_c_no_event_208.mp4","N",30,0.421517,13,0,0,NA,NA,1.366667,1.8,0,1.368333,1.8,"b",0,0.5,0.500052,1.055024,0.25,1,66,0.421517,0.039551,1,0,NA,FALSE,"Male","Cue-Locked","55-70"
"1","04.17.2018 11.22.24.704",156,1,"M",65,"experiment","Detect","Response-Locked",473,"noaudio_c_no_event_182.mp4","N",29.97003,0.224772,7,0,0,NA,NA,0.367033,0.6006,0,0.368702,0.6006,"N",1,0.5,0.500131,1.01484,0.25,3,70,0.224772,0.039551,-1,0,NA,TRUE,"Male","Response-Locked","55-70"
"1","04.17.2018 11.22.26.971",157,1,"M",65,"experiment","Detect","Cue-Locked",463,"noaudio_c_no_event_172.mp4","N",30,0.461068,14,0,0,NA,NA,3.966667,4.433333,0,3.968333,4.433333,"N",1,0.5,0.500117,0.532567,0.25,1,67,0.461068,0.039551,0,0,NA,TRUE,"Male","Cue-Locked","55-70"
"1","04.17.2018 11.22.28.987",158,1,"M",65,"experiment","Detect","Cue-Locked",416,"noaudio_c_no_event_126.mp4","N",29.97003,0.461068,14,0,0,NA,NA,3.7037,4.170833,0,3.705368,4.170833,"b",0,0.5,0.500112,1.187716,0.25,1,68,0.461068,0.039551,1,0,NA,FALSE,"Male","Cue-Locked","55-70"
"1","04.17.2018 11.22.31.654",159,1,"M",65,"experiment","Detect","Cue-Locked",61,"noaudio_c_034_critical_crash_in_lane.mp4","b",24,0.500618,12,2,0,5.5,5.5,5.3,5.8,0,5.302083,5.791667,"N",0,0.5,0.500204,0.496588,0.25,1,69,0.500618,0.039551,1,0,NA,FALSE,"Male","Cue-Locked","55-70"
"1","04.17.2018 11.22.33.770",160,1,"M",65,"experiment","Detect","Cue-Locked",230,"noaudio_c_critical_189.mp4","b",30,0.540169,16,0,0,5,5,4.8,5.333333,0,4.801667,5.333333,"b",1,0.5,0.500111,1.178781,0.25,1,70,0.540169,0.039551,0,0,NA,TRUE,"Male","Cue-Locked","55-70"
"1","04.17.2018 11.22.36.554",161,1,"M",65,"experiment","Detect","Cue-Locked",457,"noaudio_c_no_event_165.mp4","N",30,0.540169,16,0,0,NA,NA,1.9,2.433333,0,1.901667,2.433333,"N",1,0.5,0.50012,0.414861,0.25,1,71,0.540169,0.039551,0,0,NA,TRUE,"Male","Cue-Locked","55-70"
"1","04.17.2018 11.22.38.520",162,1,"M",65,"experiment","Detect","Response-Locked",152,"noaudio_c_critical_073.mp4","b",29.97003,0.185221,6,0,0,2.75,2.736067,2.550845,2.751045,0,2.552514,2.736067,"b",1,0.5,0.499957,0.897645,0.25,3,71,0.185221,0.039551,0,0,NA,TRUE,"Male","Response-Locked","55-70"
"1","04.17.2018 11.22.40.637",163,1,"M",65,"experiment","Detect","Cue-Locked",267,"noaudio_c_critical_235.mp4","b",29.97003,0.540169,16,0,0,2.4,2.4024,2.2024,2.736267,0,2.204068,2.736067,"b",1,0.5,0.50002,0.403331,0.25,1,72,0.540169,0.039551,-1,1,NA,TRUE,"Male","Cue-Locked","55-70"
"1","04.17.2018 11.22.42.604",164,1,"M",65,"experiment","Detect","Response-Locked",451,"noaudio_c_no_event_157.mp4","N",24,0.185221,4,1,0,NA,NA,6.5,6.666667,0,6.502083,6.666667,"b",0,0.5,0.500134,0.930254,0.25,3,72,0.185221,0.039551,1,1,NA,FALSE,"Male","Response-Locked","55-70"
"1","04.17.2018 11.22.44.787",165,1,"M",65,"experiment","Detect","Cue-Locked",413,"noaudio_c_no_event_124b.mp4","N",30,0.500618,15,0,0,NA,NA,2.166667,2.666667,0,2.168333,2.666667,"N",1,0.5,0.500167,0.490734,0.25,1,73,0.500618,0.039551,0,0,NA,TRUE,"Male","Cue-Locked","55-70"
"1","04.17.2018 11.22.46.803",166,1,"M",65,"experiment","Detect","Response-Locked",119,"noaudio_c_critical_029b.mp4","b",29.97003,0.224772,7,0,0,6.57,6.573233,6.348461,6.582028,0,6.35013,6.573233,"N",0,0.5,0.500271,0.540455,0.25,3,73,0.224772,0.039551,1,0,NA,FALSE,"Male","Response-Locked","55-70"
"1","04.17.2018 11.22.48.603",167,1,"M",65,"experiment","Detect","Cue-Locked",427,"noaudio_c_no_event_138.mp4","N",30,0.500618,15,0,0,NA,NA,7.366667,7.866667,0,7.368333,7.866667,"N",1,0.5,0.500084,0.610414,0.25,1,74,0.500618,0.039551,0,0,NA,TRUE,"Male","Cue-Locked","55-70"
"1","04.17.2018 11.22.50.737",168,1,"M",65,"experiment","Detect","Response-Locked",341,"noaudio_c_no_event_046.mp4","N",29.75,0.264323,8,0,0,NA,NA,0.806723,1.07563,0,0.808455,1.076436,"N",1,0.5,0.500141,0.473362,0.25,3,74,0.264323,0.039551,0,0,NA,TRUE,"Male","Response-Locked","55-70"
"1","04.17.2018 11.22.52.553",169,1,"M",65,"experiment","Detect","Response-Locked",69,"noaudio_c_039_no_event_1.mp4","N",30,0.264323,8,0,0,NA,NA,2.8,3.066667,0,2.801667,3.066667,"N",1,0.5,0.500256,0.53106,0.25,3,75,0.264323,0.039551,0,0,NA,TRUE,"Male","Response-Locked","55-70"
"1","04.17.2018 11.22.54.370",170,1,"M",65,"experiment","Detect","Response-Locked",503,"noaudio_c_no_event_212.mp4","N",30,0.264323,8,0,0,NA,NA,2.166667,2.433333,0,2.168333,2.433333,"N",1,0.5,0.5001,1.135524,0.25,3,76,0.264323,0.039551,-1,1,NA,TRUE,"Male","Response-Locked","55-70"
"1","04.17.2018 11.23.08.686",171,1,"M",65,"experiment","Detect","Cue-Locked",110,"noaudio_c_critical_016.mp4","b",30,0.500618,15,0,0,1.8,1.8,1.6,2.1,0,1.601667,2.1,"N",0,0.5,0.500148,0.508721,0.25,1,75,0.500618,0.039551,1,1,NA,FALSE,"Male","Cue-Locked","55-70"
"1","04.17.2018 11.23.10.719",172,1,"M",65,"experiment","Detect","Response-Locked",239,"noaudio_c_critical_202.mp4","b",30,0.224772,7,0,0,4.6,4.6,4.375228,4.608561,0,4.376895,4.6,"b",1,0.5,0.500138,1.017299,0.25,3,77,0.224772,0.039551,0,0,NA,TRUE,"Male","Response-Locked","55-70"
"1","04.17.2018 11.23.12.986",173,1,"M",65,"experiment","Detect","Response-Locked",43,"noaudio_c_024_critical_stopped_car_in_road.mp4","b",30,0.224772,7,0,0,2.3,2.3,2.075228,2.308561,0,2.076895,2.3,"b",1,0.5,0.500218,0.694064,0.25,3,78,0.224772,0.039551,0,0,NA,TRUE,"Male","Response-Locked","55-70"
"1","04.17.2018 11.23.14.936",174,1,"M",65,"experiment","Detect","Response-Locked",363,"noaudio_c_no_event_068.mp4","N",30,0.224772,7,0,0,NA,NA,0.633333,0.866667,0,0.635,0.866667,"N",1,0.5,0.500047,0.739539,0.25,3,79,0.224772,0.039551,-1,0,NA,TRUE,"Male","Response-Locked","55-70"
"1","04.17.2018 11.23.16.986",175,1,"M",65,"experiment","Detect","Cue-Locked",380,"noaudio_c_no_event_087.mp4","N",29.97003,0.540169,16,0,0,NA,NA,4.371033,4.9049,0,4.372702,4.9049,"b",0,0.5,0.500183,0.801705,0.25,1,76,0.540169,0.039551,1,0,NA,FALSE,"Male","Cue-Locked","55-70"
"1","04.17.2018 11.23.19.386",176,1,"M",65,"experiment","Detect","Response-Locked",4,"noaudio_c_003_critical_stop.mp4","b",29.97003,0.185221,6,0,0,2.2,2.2022,2.016979,2.217179,0,2.018647,2.2022,"b",1,0.5,0.500384,0.682556,0.25,3,80,0.185221,0.039551,0,0,NA,TRUE,"Male","Response-Locked","55-70"
"1","04.17.2018 11.23.21.286",177,1,"M",65,"experiment","Detect","Cue-Locked",298,"noaudio_c_critical_282.mp4","b",30,0.57972,17,0,0,1.6,1.6,1.4,1.966667,0,1.401667,1.966667,"b",1,0.5,0.500106,0.344518,0.25,1,77,0.57972,0.039551,0,0,NA,TRUE,"Male","Cue-Locked","55-70"
"1","04.17.2018 11.23.23.269",178,1,"M",65,"experiment","Detect","Response-Locked",343,"noaudio_c_no_event_047.mp4","N",29.97003,0.185221,6,0,0,NA,NA,2.7027,2.9029,0,2.704368,2.9029,"N",1,0.5,0.500106,0.763859,0.25,3,81,0.185221,0.039551,0,0,NA,TRUE,"Male","Response-Locked","55-70"
"1","04.17.2018 11.23.25.252",179,1,"M",65,"experiment","Detect","Response-Locked",315,"noaudio_c_no_event_013.mp4","N",29.97003,0.185221,6,0,0,NA,NA,1.4014,1.6016,0,1.403068,1.6016,"N",1,0.5,0.500089,0.552583,0.25,3,82,0.185221,0.039551,-1,0,NA,TRUE,"Male","Response-Locked","55-70"
"1","04.17.2018 11.23.27.086",180,1,"M",65,"experiment","Detect","Response-Locked",247,"noaudio_c_critical_213.mp4","b",24,0.145671,3,0,1,3.9,3.916667,3.770996,3.895996,0,3.773079,3.875,"N",0,0.5,0.500127,0.636866,0.25,3,83,0.145671,0.039551,1,1,NA,FALSE,"Male","Response-Locked","55-70"
"1","04.17.2018 11.23.28.886",181,1,"M",65,"experiment","Detect","Cue-Locked",445,"noaudio_c_no_event_153.mp4","N",29.5,0.57972,17,0,0,NA,NA,1.152542,1.728814,0,1.154237,1.728814,"N",1,0.5,0.500117,0.45705,0.25,1,78,0.57972,0.039551,0,0,NA,TRUE,"Male","Cue-Locked","55-70"
"1","04.17.2018 11.23.30.936",182,1,"M",65,"experiment","Detect","Cue-Locked",405,"noaudio_c_no_event_117.mp4","N",30,0.57972,17,0,0,NA,NA,4.966667,5.533333,0,4.968333,5.533333,"N",1,0.5,0.500094,0.396366,0.25,1,79,0.57972,0.039551,-1,1,NA,TRUE,"Male","Cue-Locked","55-70"
"1","04.17.2018 11.23.32.919",183,1,"M",65,"experiment","Detect","Cue-Locked",109,"noaudio_c_critical_013.mp4","b",29.97003,0.546387,16,0,0,4.83,4.838167,4.638167,5.172033,0,4.639835,5.171833,"b",1,0.5,0.500164,0.595269,0.25,1,80,0.546387,0.033333,0,0,NA,TRUE,"Male","Cue-Locked","55-70"
"1","04.17.2018 11.23.35.069",184,1,"M",65,"experiment","Detect","Response-Locked",77,"noaudio_c_043_critical_pedestrian.mp4","b",25,0.179004,4,0,1,2.4,2.4,2.220996,2.380996,0,2.222996,2.36,"b",1,0.5,0.500105,0.837517,0.25,3,84,0.179004,0.033333,0,0,NA,TRUE,"Male","Response-Locked","55-70"
"1","04.17.2018 11.23.37.069",185,1,"M",65,"experiment","Detect","Response-Locked",138,"noaudio_c_critical_056.mp4","b",30,0.179004,5,0,1,4.58,4.566667,4.387663,4.554329,0,4.389329,4.533333,"b",1,0.5,0.500114,0.760933,0.25,3,85,0.179004,0.033333,0,0,NA,TRUE,"Male","Response-Locked","55-70"
"1","04.17.2018 11.23.39.019",186,1,"M",65,"experiment","Detect","Cue-Locked",192,"noaudio_c_critical_131.mp4","b",30,0.546387,16,0,0,1.4,1.4,1.2,1.733333,0,1.201667,1.733333,"b",1,0.5,0.50029,1.4051,0.25,1,81,0.546387,0.033333,0,0,NA,TRUE,"Male","Cue-Locked","55-70"
"1","04.17.2018 11.23.41.969",187,1,"M",65,"experiment","Detect","Response-Locked",197,"noaudio_c_critical_136.mp4","b",29.97003,0.179004,5,0,1,2,2.002,1.822996,1.989829,0,1.824664,1.968633,"b",1,0.5,0.500263,0.781859,0.25,3,86,0.179004,0.033333,-1,1,NA,TRUE,"Male","Response-Locked","55-70"
"1","04.17.2018 11.23.44.002",188,1,"M",65,"experiment","Detect","Cue-Locked",246,"noaudio_c_critical_211.mp4","b",29.97003,0.546387,16,0,0,0.6,0.6006,0.4006,0.934467,0,0.402268,0.934267,"b",1,0.5,0.500299,0.85512,0.25,1,82,0.546387,0.033333,-1,0,NA,TRUE,"Male","Cue-Locked","55-70"
"1","04.17.2018 11.23.46.402",189,1,"M",65,"experiment","Detect","Response-Locked",18,"noaudio_c_009_critical_short_stop_pedestrian.mp4","b",29.97003,0.145671,4,0,1,6.1,6.1061,5.960429,6.093896,0,5.962098,6.072733,"N",0,0.5,0.500254,0.749094,0.25,3,87,0.145671,0.033333,1,1,NA,FALSE,"Male","Response-Locked","55-70"
"1","04.17.2018 11.23.48.302",190,1,"M",65,"experiment","Detect","Cue-Locked",361,"noaudio_c_no_event_066b.mp4","N",29.97003,0.513053,15,0,0,NA,NA,5.271933,5.772433,0,5.273602,5.772433,"N",1,0.5,0.500185,0.544532,0.25,1,83,0.513053,0.033333,0,0,NA,TRUE,"Male","Cue-Locked","55-70"
"1","04.17.2018 11.23.50.368",191,1,"M",65,"experiment","Detect","Response-Locked",122,"noaudio_c_critical_033.mp4","b",30,0.179004,5,0,1,4.66,4.666667,4.487663,4.654329,0,4.489329,4.633333,"N",0,0.5,0.500118,2.58733,0.25,3,88,0.179004,0.033333,1,0,NA,FALSE,"Male","Response-Locked","55-70"
"1","04.17.2018 11.23.54.135",192,1,"M",65,"experiment","Detect","Cue-Locked",23,"noaudio_c_012_no_event_1.mp4","N",28.901734,0.513053,15,-1,1,NA,NA,1.1418,1.6608,0,1.143694,1.629976,"N",1,0.5,0.500167,0.428664,0.25,1,84,0.513053,0.033333,0,0,NA,TRUE,"Male","Cue-Locked","55-70"
"1","04.17.2018 11.23.56.085",193,1,"M",65,"experiment","Detect","Cue-Locked",205,"noaudio_c_critical_149.mp4","b",30,0.513053,15,0,0,1.76,1.766667,1.566667,2.066667,0,1.568333,2.066667,"b",1,0.5,0.500132,1.5967,0.25,1,85,0.513053,0.033333,-1,0,NA,TRUE,"Male","Cue-Locked","55-70"
"1","04.17.2018 11.23.59.202",194,1,"M",65,"experiment","Detect","Cue-Locked",83,"noaudio_c_046_no_event_1.mp4","N",29.97003,0.47972,14,0,0,NA,NA,0.8008,1.267933,0,0.802468,1.267933,"N",1,0.5,0.500176,0.634307,0.25,1,86,0.47972,0.033333,0,0,NA,TRUE,"Male","Cue-Locked","55-70"
"1","04.17.2018 11.24.01.335",195,1,"M",65,"experiment","Detect","Cue-Locked",8,"noaudio_c_005_critical_unsignaled_turn.mp4","b",30,0.47972,14,0,0,1.167,1.166667,0.966667,1.433333,0,0.968333,1.433333,"b",1,0.5,0.500135,1.263319,0.25,1,87,0.47972,0.033333,0,0,NA,TRUE,"Male","Cue-Locked","55-70"
"1","04.17.2018 11.24.04.085",196,1,"M",65,"experiment","Detect","Response-Locked",201,"noaudio_c_critical_141.mp4","b",29.97003,0.212337,6,0,1,3.6,3.6036,3.391263,3.591463,0,3.392931,3.570233,"N",0,0.5,0.500138,1.554369,0.25,3,89,0.212337,0.033333,1,0,NA,FALSE,"Male","Response-Locked","55-70"
"1","04.17.2018 11.24.06.851",197,1,"M",65,"experiment","Detect","Cue-Locked",80,"noaudio_c_045_critical_tire.mp4","b",29.97003,0.47972,14,0,0,2,2.002,1.802,2.269133,0,1.803668,2.268933,"b",1,0.5,0.500093,0.803593,0.25,1,88,0.47972,0.033333,-1,0,NA,TRUE,"Male","Cue-Locked","55-70"
"1","04.17.2018 11.24.09.135",198,1,"M",65,"experiment","Detect","Response-Locked",28,"noaudio_c_014_no_event_2.mp4","N",30,0.245671,7,0,0,NA,NA,5.533333,5.766667,0,5.535,5.766667,"N",1,0.5,0.500103,0.754017,0.25,3,90,0.245671,0.033333,0,0,NA,TRUE,"Male","Response-Locked","55-70"
"1","04.17.2018 11.24.11.135",199,1,"M",65,"experiment","Detect","Cue-Locked",78,"noaudio_c_044_critical.mp4","b",29.97003,0.446387,13,0,0,6.45,6.439767,6.239767,6.673533,0,6.241435,6.673333,"b",1,0.5,0.500152,1.506472,0.25,1,89,0.446387,0.033333,0,0,NA,TRUE,"Male","Cue-Locked","55-70"
"1","04.17.2018 11.24.14.101",200,1,"M",65,"experiment","Detect","Cue-Locked",207,"noaudio_c_critical_152.mp4","b",30,0.446387,13,0,0,2.23,2.233333,2.033333,2.466667,0,2.035,2.466667,"N",0,0.5,0.500106,1.064718,0.25,1,90,0.446387,0.033333,1,1,NA,FALSE,"Male","Cue-Locked","55-70"
"1","04.17.2018 11.24.16.618",201,1,"M",65,"experiment","Detect","Response-Locked",105,"noaudio_c_critical_006.mp4","b",30,0.245671,7,0,1,4.71,4.7,4.454329,4.687663,0,4.455996,4.666667,"b",1,0.5,0.500083,1.118564,0.25,3,91,0.245671,0.033333,0,0,NA,TRUE,"Male","Response-Locked","55-70"
"1","04.17.2018 11.24.18.984",202,1,"M",65,"experiment","Detect","Response-Locked",306,"noaudio_c_no_event_003.mp4","N",29.97003,0.245671,7,0,0,NA,NA,7.1071,7.340667,0,7.108768,7.340667,"N",1,0.5,0.500113,0.596751,0.25,3,92,0.245671,0.033333,-1,1,NA,TRUE,"Male","Response-Locked","55-70"
"1","04.17.2018 11.24.20.834",203,1,"M",65,"experiment","Detect","Response-Locked",433,"noaudio_c_no_event_142.mp4","N",29.97003,0.212337,6,0,0,NA,NA,6.539867,6.740067,0,6.541535,6.740067,"N",1,0.5,0.500259,0.749405,0.25,3,93,0.212337,0.033333,0,0,NA,TRUE,"Male","Response-Locked","55-70"
"1","04.17.2018 11.24.22.801",204,1,"M",65,"experiment","Detect","Cue-Locked",82,"noaudio_c_046_critical_pedestrian.mp4","b",29.97003,0.47972,14,0,0,5.73,5.739067,5.539067,6.0062,0,5.540735,6.006,"b",1,0.5,0.500108,1.034742,0.25,1,91,0.47972,0.033333,0,0,NA,TRUE,"Male","Cue-Locked","55-70"
"1","04.17.2018 11.24.25.318",205,1,"M",65,"experiment","Detect","Response-Locked",439,"noaudio_c_no_event_147c.mp4","N",24,0.212337,5,1,1,NA,NA,0.125,0.333333,0,0.127083,0.291667,"N",1,0.5,0.500211,1.154325,0.25,3,94,0.212337,0.033333,0,0,NA,TRUE,"Male","Response-Locked","55-70"
"1","04.17.2018 11.24.27.734",206,1,"M",65,"experiment","Detect","Cue-Locked",436,"noaudio_c_no_event_146.mp4","N",29.97003,0.47972,14,0,0,NA,NA,4.537867,5.005,0,4.539535,5.005,"N",1,0.5,0.500191,0.46084,0.25,1,92,0.47972,0.033333,0,0,NA,TRUE,"Male","Cue-Locked","55-70"
"1","04.17.2018 11.24.29.684",207,1,"M",65,"experiment","Detect","Cue-Locked",183,"noaudio_c_critical_118.mp4","b",29.97003,0.47972,14,0,0,2.25,2.235567,2.035567,2.5027,0,2.037235,2.5025,"b",1,0.5,0.500089,1.0146,0.25,1,93,0.47972,0.033333,-1,1,NA,TRUE,"Male","Cue-Locked","55-70"
"1","04.17.2018 11.24.32.184",208,1,"M",65,"experiment","Detect","Cue-Locked",367,"noaudio_c_no_event_072.mp4","N",30,0.446387,13,0,0,NA,NA,1.133333,1.566667,0,1.135,1.566667,"N",1,0.5,0.500238,1.79585,0.25,1,94,0.446387,0.033333,0,0,NA,TRUE,"Male","Cue-Locked","55-70"
"1","04.17.2018 11.24.35.434",209,1,"M",65,"experiment","Detect","Response-Locked",177,"noaudio_c_critical_107.mp4","b",30,0.212337,6,0,1,3.3,3.3,3.087663,3.287663,0,3.089329,3.266667,"b",1,0.5,0.49998,0.895404,0.25,3,95,0.212337,0.033333,-1,0,NA,TRUE,"Male","Response-Locked","55-70"
"1","04.17.2018 11.24.37.550",210,1,"M",65,"experiment","Detect","Cue-Locked",141,"noaudio_c_critical_059.mp4","b",30,0.446387,13,0,1,0.33,0.333333,0.133333,0.566667,0,0.135,0.533333,"b",1,0.5,0.500155,0.290548,0.25,1,95,0.446387,0.033333,0,0,NA,TRUE,"Male","Cue-Locked","55-70"
"1","04.17.2018 11.24.39.300",211,1,"M",65,"experiment","Detect","Response-Locked",292,"noaudio_c_critical_276.mp4","b",29.97003,0.179004,5,0,1,6.55,6.539867,6.360863,6.527696,0,6.362531,6.5065,"b",1,0.5,0.500245,0.511269,0.25,3,96,0.179004,0.033333,0,0,NA,TRUE,"Male","Response-Locked","55-70"
"1","04.17.2018 11.24.41.000",212,1,"M",65,"experiment","Detect","Cue-Locked",118,"noaudio_c_critical_029.mp4","b",29.97003,0.446387,13,0,0,1.5,1.5015,1.3015,1.735267,0,1.303168,1.735067,"b",1,0.5,0.49994,0.403152,0.25,1,96,0.446387,0.033333,-1,0,NA,TRUE,"Male","Cue-Locked","55-70"
"1","04.17.2018 11.24.42.850",213,1,"M",65,"experiment","Detect","Cue-Locked",19,"noaudio_c_010_critical_unsignaled_turn.mp4","b",29.97003,0.413053,12,0,0,5.05,5.038367,4.838367,5.238767,0,4.840035,5.238567,"b",1,0.5,0.500088,0.252582,0.25,1,97,0.413053,0.033333,0,0,NA,TRUE,"Male","Cue-Locked","55-70"
"1","04.17.2018 11.24.44.517",214,1,"M",65,"experiment","Detect","Response-Locked",479,"noaudio_c_no_event_190.mp4","N",29.97003,0.179004,5,0,0,NA,NA,6.072733,6.239567,0,6.074402,6.239567,"N",1,0.5,0.5001,0.938097,0.25,3,97,0.179004,0.033333,0,0,NA,TRUE,"Male","Response-Locked","55-70"
"1","04.17.2018 11.24.46.700",215,1,"M",65,"experiment","Detect","Cue-Locked",329,"noaudio_c_no_event_036.mp4","N",30,0.413053,12,0,0,NA,NA,6.7,7.1,0,6.701667,7.1,"N",1,0.5,0.500127,0.402431,0.25,1,98,0.413053,0.033333,0,0,NA,TRUE,"Male","Cue-Locked","55-70"
"1","04.17.2018 11.24.48.517",216,1,"M",65,"experiment","Detect","Response-Locked",94,"noaudio_c_051_no_event_1.mp4","N",29.97003,0.179004,5,0,0,NA,NA,5.2052,5.372033,0,5.206868,5.372033,"N",1,0.5,0.500077,0.88544,0.25,3,98,0.179004,0.033333,-1,0,NA,TRUE,"Male","Response-Locked","55-70"
"1","04.17.2018 11.24.50.583",217,1,"M",65,"experiment","Detect","Response-Locked",360,"noaudio_c_no_event_066.mp4","N",29.97003,0.145671,4,0,0,NA,NA,3.1031,3.236567,0,3.104768,3.236567,"N",1,0.5,0.50005,0.782751,0.25,3,99,0.145671,0.033333,0,0,NA,TRUE,"Male","Response-Locked","55-70"
"1","04.17.2018 11.24.52.517",218,1,"M",65,"experiment","Detect","Cue-Locked",217,"noaudio_c_critical_169.mp4","b",23.976024,0.413053,10,2,0,1.33,1.334667,1.134667,1.55175,0,1.136752,1.543208,"b",1,0.5,0.500241,1.127816,0.25,1,99,0.413053,0.033333,-1,0,NA,TRUE,"Male","Cue-Locked","55-70"
"1","04.17.2018 11.24.55.167",219,1,"M",65,"experiment","Detect","Response-Locked",264,"noaudio_c_critical_231.mp4","b",30,0.145671,4,0,1,3.1,3.1,2.954329,3.087663,0,2.955996,3.066667,"b",1,0.5,0.500111,1.046056,0.25,3,100,0.145671,0.033333,0,0,NA,TRUE,"Male","Response-Locked","55-70"
"1","04.17.2018 11.24.57.433",220,1,"M",65,"experiment","Detect","Cue-Locked",418,"noaudio_c_no_event_128.mp4","N",30,0.37972,11,0,0,NA,NA,6.1,6.466667,0,6.101667,6.466667,"N",1,0.5,0.500123,0.433643,0.25,1,100,0.37972,0.033333,0,0,NA,TRUE,"Male","Cue-Locked","55-70"
"1","04.17.2018 11.27.29.996",227,1,"M",65,"experiment","Choose","Response-Locked",271,"noaudio_c_critical_240.mp4","l",30,0.320353,10,0,0,3.38,3.366667,3.046314,3.379647,0,3.047981,3.366667,"l",1,0.5,0.50028,0.775868,0.25,4,1,0.320353,0.166667,-1,0,NA,TRUE,"Male","Choose","55-70"
"1","04.17.2018 11.27.32.129",228,1,"M",65,"experiment","Choose","Response-Locked",224,"noaudio_c_critical_183.mp4","l",30,0.153686,5,0,0,6.7,6.7,6.546314,6.712981,0,6.547981,6.7,"r",0,0.5,0.500245,0.77735,0.25,4,2,0.153686,0.166667,1,1,NA,FALSE,"Male","Choose","55-70"
"1","04.17.2018 11.27.34.096",229,1,"M",65,"experiment","Choose","Response-Locked",106,"noaudio_c_critical_007.mp4","l",30,0.320353,10,0,0,6.6,6.6,6.279647,6.612981,0,6.281314,6.6,"r",0,0.5,0.500165,0.416846,0.25,4,3,0.320353,0.166667,1,0,NA,FALSE,"Male","Choose","55-70"
"1","04.17.2018 11.27.35.929",230,1,"M",65,"experiment","Choose","Response-Locked",202,"noaudio_c_critical_142.mp4","l",29.97003,0.487019,15,0,0,6.31,6.3063,5.819281,6.319781,0,5.820949,6.3063,"l",1,0.5,0.500159,0.538346,0.25,4,4,0.487019,0.166667,0,0,NA,TRUE,"Male","Choose","55-70"
"1","04.17.2018 11.27.38.029",231,1,"M",65,"experiment","Choose","Response-Locked",258,"noaudio_c_critical_224.mp4","r",29.97003,0.487019,15,0,0,1.96,1.968633,1.481614,1.982114,0,1.483282,1.968633,"r",1,0.5,0.500207,0.392714,0.25,4,5,0.487019,0.166667,0,0,NA,TRUE,"Male","Choose","55-70"
"1","04.17.2018 11.27.39.945",232,1,"M",65,"experiment","Choose","Response-Locked",301,"noaudio_c_critical_286.mp4","r",30,0.487019,15,0,0,3.4,3.4,2.912981,3.412981,0,2.914647,3.4,"r",1,0.5,0.500039,0.245605,0.25,4,6,0.487019,0.166667,-1,1,NA,TRUE,"Male","Choose","55-70"
"1","04.17.2018 11.27.41.762",233,1,"M",65,"experiment","Choose","Response-Locked",127,"noaudio_c_critical_044.mp4","l",29.97003,0.320353,10,0,0,5.6,5.6056,5.285247,5.618914,0,5.286916,5.6056,"r",0,0.5,0.500149,0.893296,0.25,4,7,0.320353,0.166667,1,1,NA,FALSE,"Male","Choose","55-70"
"1","04.17.2018 11.27.44.062",234,1,"M",65,"experiment","Choose","Response-Locked",175,"noaudio_c_critical_105.mp4","r",30,0.445353,13,0,1,5.45,5.466667,5.021314,5.454647,0,5.022981,5.433333,"r",1,0.5,0.500643,0.228119,0.25,4,8,0.445353,0.125,0,0,NA,TRUE,"Male","Choose","55-70"
"1","04.17.2018 11.27.45.745",235,1,"M",65,"experiment","Choose","Response-Locked",198,"noaudio_c_critical_137.mp4","r",27.25,0.445353,12,-1,1,3.4,3.412844,2.967491,3.407858,0,2.969326,3.376147,"r",1,0.5,0.500199,0.874598,0.25,4,9,0.445353,0.125,0,0,NA,TRUE,"Male","Choose","55-70"
"1","04.17.2018 11.27.48.045",236,1,"M",65,"experiment","Choose","Response-Locked",134,"noaudio_c_critical_051.mp4","r",27.39726,0.445353,12,-1,1,5.6,5.5845,5.139147,5.577147,0,5.14105,5.553893,"r",1,0.5,0.500158,0.49627,0.25,4,10,0.445353,0.125,-1,1,NA,TRUE,"Male","Choose","55-70"
"1","04.17.2018 11.27.49.962",237,1,"M",65,"experiment","Choose","Response-Locked",238,"noaudio_c_critical_201.mp4","l",30,0.320353,10,0,0,2.6,2.6,2.279647,2.612981,0,2.281314,2.6,"r",0,0.5,0.50022,1.49362,0.25,4,11,0.320353,0.125,1,1,NA,FALSE,"Male","Choose","55-70"
"1","04.17.2018 11.27.52.812",238,1,"M",65,"experiment","Choose","Response-Locked",291,"noaudio_c_critical_274.mp4","l",30,0.445353,13,0,1,5.4,5.4,4.954647,5.387981,0,4.956314,5.366667,"l",1,0.5,0.500206,0.491281,0.25,4,12,0.445353,0.125,0,0,NA,TRUE,"Male","Choose","55-70"
"1","04.17.2018 11.27.54.862",239,1,"M",65,"experiment","Choose","Response-Locked",56,"noaudio_c_032_critical_swerve.mp4","l",30,0.445353,13,0,1,4.1,4.1,3.654647,4.087981,0,3.656314,4.066667,"l",1,0.5,0.500153,0.308551,0.25,4,13,0.445353,0.125,0,0,NA,TRUE,"Male","Choose","55-70"
"1","04.17.2018 11.27.56.628",240,1,"M",65,"experiment","Choose","Response-Locked",131,"noaudio_c_critical_048.mp4","r",30,0.445353,13,0,1,1.8,1.8,1.354647,1.787981,0,1.356314,1.766667,"r",1,0.5,0.500134,0.246572,0.25,4,14,0.445353,0.125,-1,1,NA,TRUE,"Male","Choose","55-70"
"1","04.17.2018 11.27.58.328",241,1,"M",65,"experiment","Choose","Response-Locked",160,"noaudio_c_critical_086.mp4","r",29.97003,0.351603,11,0,0,0.66,0.667333,0.315731,0.682764,0,0.317399,0.667333,"r",1,0.5,0.500086,0.388136,0.25,4,15,0.351603,0.09375,0,0,NA,TRUE,"Male","Choose","55-70"
"1","04.17.2018 11.28.00.162",242,1,"M",65,"experiment","Choose","Response-Locked",30,"noaudio_c_016_critical_loose_tires.mp4","r",29.97003,0.351603,11,0,0,2.46,2.469133,2.117531,2.484564,0,2.119199,2.469133,"r",1,0.5,0.500309,0.707148,0.25,4,16,0.351603,0.09375,0,0,NA,TRUE,"Male","Choose","55-70"
"1","04.17.2018 11.28.02.261",243,1,"M",65,"experiment","Choose","Response-Locked",158,"noaudio_c_critical_083.mp4","r",30,0.351603,11,0,0,4.5,4.5,4.148397,4.515064,0,4.150064,4.5,"r",1,0.5,0.499899,0.699041,0.25,4,17,0.351603,0.09375,-1,0,NA,TRUE,"Male","Choose","55-70"
"1","04.17.2018 11.28.04.345",244,1,"M",65,"experiment","Choose","Response-Locked",227,"noaudio_c_critical_186.mp4","l",29.97003,0.257853,8,0,0,4.6,4.6046,4.346747,4.613681,0,4.348416,4.6046,"r",0,0.5,0.500109,0.826684,0.25,4,18,0.257853,0.09375,1,1,NA,FALSE,"Male","Choose","55-70"
"1","04.17.2018 11.28.06.461",245,1,"M",65,"experiment","Choose","Response-Locked",244,"noaudio_c_critical_209.mp4","l",30,0.351603,11,0,0,3.167,3.166667,2.815064,3.181731,0,2.816731,3.166667,"l",1,0.5,0.500104,0.439277,0.25,4,19,0.351603,0.09375,0,0,NA,TRUE,"Male","Choose","55-70"
"1","04.17.2018 11.28.08.278",246,1,"M",65,"experiment","Choose","Response-Locked",302,"noaudio_c_critical_287.mp4","r",30,0.351603,11,0,0,5.4,5.4,5.048397,5.415064,0,5.050064,5.4,"r",1,0.5,0.500247,0.33163,0.25,4,20,0.351603,0.09375,0,0,NA,TRUE,"Male","Choose","55-70"
"1","04.17.2018 11.28.09.995",247,1,"M",65,"experiment","Choose","Response-Locked",168,"noaudio_c_critical_096.mp4","r",29.97003,0.351603,11,0,0,6.77,6.773433,6.421831,6.788864,0,6.423499,6.773433,"r",1,0.5,0.50012,0.291744,0.25,4,21,0.351603,0.09375,-1,1,NA,TRUE,"Male","Choose","55-70"
"1","04.17.2018 11.28.11.678",248,1,"M",65,"experiment","Choose","Response-Locked",50,"noaudio_c_028_critical_sideswipe.mp4","l",29.97003,0.257853,8,0,0,5.1,5.1051,4.847247,5.114181,0,4.848916,5.1051,"l",1,0.5,0.500103,0.4122,0.25,4,22,0.257853,0.09375,0,0,NA,TRUE,"Male","Choose","55-70"
"1","04.17.2018 11.28.13.378",249,1,"M",65,"experiment","Choose","Response-Locked",180,"noaudio_c_critical_111.mp4","r",29.97003,0.257853,8,0,0,6,6.006,5.748147,6.015081,0,5.749816,6.006,"l",0,0.5,0.500108,1.221817,0.25,4,23,0.257853,0.09375,1,1,NA,FALSE,"Male","Choose","55-70"
"1","04.17.2018 11.28.15.878",250,1,"M",65,"experiment","Choose","Response-Locked",189,"noaudio_c_critical_127.mp4","l",29.97003,0.328165,10,0,0,6.9,6.9069,6.578735,6.912401,0,6.580403,6.9069,"l",1,0.5,0.500631,0.972461,0.25,4,24,0.328165,0.070312,0,0,NA,TRUE,"Male","Choose","55-70"
"1","04.17.2018 11.28.18.194",251,1,"M",65,"experiment","Choose","Response-Locked",303,"noaudio_c_critical_288.mp4","r",30,0.328165,10,0,0,5.7,5.7,5.371835,5.705168,0,5.307501,5.633333,"r",1,0.5,0.500299,0.49256,0.25,4,25,0.328165,0.070312,0,0,NA,TRUE,"Male","Choose","55-70"
"1","04.17.2018 11.28.20.044",252,1,"M",65,"experiment","Choose","Response-Locked",236,"noaudio_c_critical_199.mp4","l",30,0.328165,10,0,0,4.7,4.7,4.371835,4.705168,0,4.373501,4.7,"l",1,0.5,0.500083,0.575528,0.25,4,26,0.328165,0.070312,-1,1,NA,TRUE,"Male","Choose","55-70"
"1","04.17.2018 11.28.21.978",253,1,"M",65,"experiment","Choose","Response-Locked",276,"noaudio_c_critical_247.mp4","r",29.97003,0.257853,8,0,0,5.1,5.1051,4.847247,5.114181,0,4.848916,5.1051,"r",1,0.5,0.50011,0.318061,0.25,4,27,0.257853,0.070312,0,0,NA,TRUE,"Male","Choose","55-70"
"1","04.17.2018 11.28.23.578",254,1,"M",65,"experiment","Choose","Response-Locked",234,"noaudio_c_critical_194.mp4","l",30,0.257853,8,0,0,3.45,3.466667,3.208814,3.475481,0,3.210481,3.466667,"l",1,0.5,0.500126,0.48791,0.25,4,28,0.257853,0.070312,0,0,NA,TRUE,"Male","Choose","55-70"
"1","04.17.2018 11.28.25.344",255,1,"M",65,"experiment","Choose","Response-Locked",268,"noaudio_c_critical_236.mp4","l",25,0.257853,6,-1,1,6.6,6.6,6.342147,6.582147,0,6.344147,6.56,"l",1,0.5,0.500117,0.674816,0.25,4,29,0.257853,0.070312,-1,0,NA,TRUE,"Male","Choose","55-70"
"1","04.17.2018 11.28.27.311",256,1,"M",65,"experiment","Choose","Response-Locked",265,"noaudio_c_critical_232.mp4","l",30,0.18754,6,0,0,6.85,6.866667,6.679126,6.879126,0,6.680793,6.866667,"l",1,0.5,0.500418,0.9852,0.25,4,30,0.18754,0.070312,0,0,NA,TRUE,"Male","Choose","55-70"
"1","04.17.2018 11.28.29.511",257,1,"M",65,"experiment","Choose","Response-Locked",132,"noaudio_c_critical_049.mp4","r",29.97003,0.18754,6,0,0,3.6,3.6036,3.41606,3.61626,0,3.417728,3.6036,"r",1,0.5,0.500417,0.608326,0.25,4,31,0.18754,0.070312,0,0,NA,TRUE,"Male","Choose","55-70"
"1","04.17.2018 11.28.31.344",258,1,"M",65,"experiment","Choose","Response-Locked",187,"noaudio_c_critical_125.mp4","r",30,0.18754,6,0,0,2.3,2.3,2.11246,2.31246,0,2.114126,2.3,"r",1,0.5,0.500114,0.893327,0.25,4,32,0.18754,0.070312,-1,0,NA,TRUE,"Male","Choose","55-70"
"1","04.17.2018 11.28.33.461",259,1,"M",65,"experiment","Choose","Response-Locked",53,"noaudio_c_030_critical_swerve.mp4","r",29.97003,0.117228,4,0,0,5.76,5.772433,5.655206,5.788672,0,5.656874,5.772433,"r",1,0.5,0.500166,0.462005,0.25,4,33,0.117228,0.070312,0,0,NA,TRUE,"Male","Choose","55-70"
"1","04.17.2018 11.28.35.078",260,1,"M",65,"experiment","Choose","Response-Locked",266,"noaudio_c_critical_234.mp4","r",29.97003,0.117228,4,0,0,5.9,5.9059,5.788672,5.922139,0,5.790341,5.9059,"r",1,0.5,0.50034,0.749432,0.25,4,34,0.117228,0.070312,0,0,NA,TRUE,"Male","Choose","55-70"
"1","04.17.2018 11.28.36.977",261,1,"M",65,"experiment","Choose","Response-Locked",243,"noaudio_c_critical_207.mp4","l",25,0.117228,3,0,0,3.4,3.4,3.282772,3.402772,0,3.284772,3.4,"l",1,0.5,0.500205,0.918918,0.25,4,35,0.117228,0.070312,-1,0,NA,TRUE,"Male","Choose","55-70"
"1","04.17.2018 11.28.39.011",262,1,"M",65,"experiment","Choose","Response-Locked",256,"noaudio_c_critical_222.mp4","l",29.97003,0.046915,1,0,0,1.5,1.5015,1.454585,1.487951,0,1.456253,1.48962,"l",1,0.5,0.500254,1.632368,0.25,4,36,0.046915,0.070312,0,0,NA,TRUE,"Male","Choose","55-70"
"2","04.17.2018 09.40.25.094",21,2,"M",32,"experiment","Detect","Response-Locked",233,"noaudio_c_critical_193.mp4","b",29.97003,0.75,22,0,1,4.1,4.1041,3.3541,4.088167,0,3.355768,4.070733,"b",1,0.5,0.500198,0.560557,0.25,3,1,0.75,0.166667,-1,0,NA,TRUE,"Male","Response-Locked","20-35"
"2","04.17.2018 09.40.27.428",22,2,"M",32,"experiment","Detect","Cue-Locked",211,"noaudio_c_critical_160.mp4","b",30,0.75,23,0,1,0.33,0.333333,0.133333,0.9,0,0.135,0.866667,"b",1,0.5,0.500181,0.442399,0.25,1,1,0.75,0.166667,-1,0,NA,TRUE,"Male","Cue-Locked","20-35"
"2","04.17.2018 09.40.29.661",23,2,"M",32,"experiment","Detect","Response-Locked",85,"noaudio_c_047_no_event_1.mp4","N",30,0.583333,18,0,1,NA,NA,0.1,0.7,0,0.101667,0.666667,"N",1,0.5,0.500516,0.698659,0.25,3,2,0.583333,0.166667,-1,0,NA,TRUE,"Male","Response-Locked","20-35"
"2","04.17.2018 09.40.31.977",24,2,"M",32,"experiment","Detect","Cue-Locked",449,"noaudio_c_no_event_155b.mp4","N",28.985507,0.583333,17,-1,1,NA,NA,4.4505,5.037,0,4.452389,5.014327,"N",1,0.5,0.500095,0.394838,0.25,1,2,0.583333,0.166667,-1,0,NA,TRUE,"Male","Cue-Locked","20-35"
"2","04.17.2018 09.40.33.961",25,2,"M",32,"experiment","Detect","Response-Locked",422,"noaudio_c_no_event_131.mp4","N",30,0.416667,13,0,0,NA,NA,5.033333,5.466667,0,5.035,5.466667,"N",1,0.5,0.50047,0.837408,0.25,3,3,0.416667,0.166667,-1,0,NA,TRUE,"Male","Response-Locked","20-35"
"2","04.17.2018 09.40.36.261",26,2,"M",32,"experiment","Detect","Cue-Locked",150,"noaudio_c_critical_071.mp4","b",25,0.416667,10,-1,0,2.52,2.52,2.32,2.72,0,2.322,2.72,"b",1,0.5,0.500086,1.252183,0.25,1,3,0.416667,0.166667,-1,0,NA,TRUE,"Male","Cue-Locked","20-35"
"2","04.17.2018 09.40.38.877",27,2,"M",32,"experiment","Detect","Cue-Locked",310,"noaudio_c_no_event_008.mp4","N",30,0.25,8,0,0,NA,NA,6.766667,7.033333,0,6.768333,7.033333,"N",1,0.5,0.500136,0.954365,0.25,1,4,0.25,0.166667,-1,0,NA,TRUE,"Male","Cue-Locked","20-35"
"2","04.17.2018 09.40.41.110",28,2,"M",32,"experiment","Detect","Response-Locked",108,"noaudio_c_critical_012.mp4","b",30,0.25,8,0,0,7.47,7.466667,7.216667,7.483333,0,7.218333,7.466667,"b",1,0.5,0.500116,0.886839,0.25,3,4,0.25,0.166667,-1,0,NA,TRUE,"Male","Response-Locked","20-35"
"2","04.17.2018 09.40.43.277",29,2,"M",32,"experiment","Detect","Response-Locked",257,"noaudio_c_critical_223.mp4","b",30,0.083333,3,0,0,3.38,3.366667,3.283333,3.383333,0,3.285,3.366667,"N",0,0.5,0.500134,3.900808,0.25,3,5,0.083333,0.166667,1,1,NA,FALSE,"Male","Response-Locked","20-35"
"2","04.17.2018 09.40.48.294",30,2,"M",32,"experiment","Detect","Cue-Locked",182,"noaudio_c_critical_114.mp4","b",30,0.083333,3,0,0,4.3,4.3,4.1,4.2,0,4.101667,4.2,"N",0,0.5,0.500132,0.794144,0.25,1,5,0.083333,0.166667,1,1,NA,FALSE,"Male","Cue-Locked","20-35"
"2","04.17.2018 09.40.50.210",31,2,"M",32,"experiment","Detect","Cue-Locked",105,"noaudio_c_critical_006.mp4","b",30,0.25,8,0,0,4.2,4.2,4,4.266667,0,4.001667,4.266667,"b",1,0.5,0.500178,0.889544,0.25,1,6,0.25,0.166667,0,0,NA,TRUE,"Male","Cue-Locked","20-35"
"2","04.17.2018 09.40.52.393",32,2,"M",32,"experiment","Detect","Cue-Locked",414,"noaudio_c_no_event_125.mp4","N",30,0.25,8,0,0,NA,NA,1.5,1.766667,0,1.501667,1.766667,"N",1,0.5,0.500116,1.037266,0.25,1,7,0.25,0.166667,0,0,NA,TRUE,"Male","Cue-Locked","20-35"
"2","04.17.2018 09.40.54.710",33,2,"M",32,"experiment","Detect","Response-Locked",122,"noaudio_c_critical_033.mp4","b",30,0.25,8,0,0,4.66,4.666667,4.416667,4.683333,0,4.418333,4.666667,"b",1,0.5,0.500274,0.639715,0.25,3,6,0.25,0.166667,0,0,NA,TRUE,"Male","Response-Locked","20-35"
"2","04.17.2018 09.40.56.627",34,2,"M",32,"experiment","Detect","Response-Locked",419,"noaudio_c_no_event_128b.mp4","N",30,0.25,8,0,0,NA,NA,4.4,4.666667,0,4.401667,4.666667,"N",1,0.5,0.500257,0.729664,0.25,3,7,0.25,0.166667,0,0,NA,TRUE,"Male","Response-Locked","20-35"
"2","04.17.2018 09.40.58.643",35,2,"M",32,"experiment","Detect","Cue-Locked",157,"noaudio_c_critical_082.mp4","b",29.97003,0.25,7,0,1,4.45,4.437767,4.237767,4.471333,0,4.239435,4.471133,"N",0,0.5,0.500121,0.582759,0.25,1,8,0.25,0.166667,1,0,NA,FALSE,"Male","Cue-Locked","20-35"
"2","04.17.2018 09.41.00.476",36,2,"M",32,"experiment","Detect","Response-Locked",196,"noaudio_c_critical_135.mp4","b",30,0.25,8,0,0,4.13,4.133333,3.883333,4.15,0,3.885,4.133333,"N",0,0.5,0.500182,1.042455,0.25,3,8,0.25,0.166667,1,0,NA,FALSE,"Male","Response-Locked","20-35"
"2","04.17.2018 09.41.02.810",37,2,"M",32,"experiment","Detect","Response-Locked",481,"noaudio_c_no_event_191.mp4","N",30,0.416667,13,0,0,NA,NA,6.633333,7.066667,0,6.635,7.066667,"N",1,0.5,0.500168,0.591663,0.25,3,9,0.416667,0.166667,0,0,NA,TRUE,"Male","Response-Locked","20-35"
"2","04.17.2018 09.41.06.193",38,2,"M",32,"experiment","Detect","Cue-Locked",495,"noaudio_c_no_event_204.mp4","N",29.97003,0.416667,12,0,1,NA,NA,6.239567,6.639967,0,6.241235,6.639967,"N",1,0.5,1.833502,0.709338,0.25,1,9,0.416667,0.166667,0,0,NA,TRUE,"Male","Cue-Locked","20-35"
"2","04.17.2018 09.41.08.360",39,2,"M",32,"experiment","Detect","Response-Locked",184,"noaudio_c_critical_119.mp4","b",30,0.416667,13,0,0,2.84,2.833333,2.416667,2.85,0,2.418333,2.833333,"b",1,0.5,0.500261,0.459932,0.25,3,10,0.416667,0.166667,0,0,NA,TRUE,"Male","Response-Locked","20-35"
"2","04.17.2018 09.41.10.276",40,2,"M",32,"experiment","Detect","Response-Locked",116,"noaudio_c_critical_025.mp4","b",25,0.416667,10,-1,1,7.4,7.4,6.983333,7.383333,0,6.985333,7.36,"N",0,0.5,0.500146,1.460684,0.25,3,11,0.416667,0.166667,1,0,NA,FALSE,"Male","Response-Locked","20-35"
"2","04.17.2018 09.41.13.093",41,2,"M",32,"experiment","Detect","Cue-Locked",109,"noaudio_c_critical_013.mp4","b",29.97003,0.416667,12,0,1,4.83,4.838167,4.638167,5.038567,0,4.639835,5.038367,"b",1,0.5,0.500141,0.646913,0.25,1,10,0.416667,0.166667,0,0,NA,TRUE,"Male","Cue-Locked","20-35"
"2","04.17.2018 09.41.15.159",42,2,"M",32,"experiment","Detect","Cue-Locked",217,"noaudio_c_critical_169.mp4","b",23.976024,0.416667,10,2,0,1.33,1.334667,1.134667,1.55175,0,1.136752,1.543208,"N",0,0.5,0.500113,0.932266,0.25,1,11,0.416667,0.166667,1,0,NA,FALSE,"Male","Cue-Locked","20-35"
"2","04.17.2018 09.41.17.609",43,2,"M",32,"experiment","Detect","Cue-Locked",220,"noaudio_c_critical_173.mp4","b",30,0.583333,18,0,0,0.54,0.533333,0.333333,0.933333,0,0.335,0.933333,"N",0,0.5,0.500138,1.135391,0.25,1,12,0.583333,0.166667,1,0,NA,FALSE,"Male","Cue-Locked","20-35"
"2","04.17.2018 09.41.20.359",44,2,"M",32,"experiment","Detect","Cue-Locked",96,"noaudio_c_052_no_event_2.mp4","N",30,0.75,23,0,0,NA,NA,6.733333,7.5,0,6.735,7.5,"N",1,0.5,0.500059,0.699259,0.25,1,13,0.75,0.166667,0,0,NA,TRUE,"Male","Cue-Locked","20-35"
"2","04.17.2018 09.41.22.843",45,2,"M",32,"experiment","Detect","Cue-Locked",278,"noaudio_c_critical_251.mp4","b",25,0.75,19,-3,0,5.4,5.4,5.2,5.96,0,5.202,5.96,"b",1,0.5,0.500039,0.100376,0.25,1,14,0.75,0.166667,0,0,NA,TRUE,"Male","Cue-Locked","20-35"
"2","04.17.2018 09.41.24.609",46,2,"M",32,"experiment","Detect","Response-Locked",324,"noaudio_c_no_event_029b.mp4","N",29.97003,0.583333,17,0,1,NA,NA,3.570233,4.137467,0,3.571902,4.137467,"N",1,0.5,0.500083,0.849465,0.25,3,12,0.583333,0.166667,0,0,NA,TRUE,"Male","Response-Locked","20-35"
"2","04.17.2018 09.41.27.042",47,2,"M",32,"experiment","Detect","Response-Locked",102,"noaudio_c_critical_002.mp4","b",29.97003,0.583333,17,0,1,6.5,6.5065,5.923167,6.4904,0,5.924835,6.473133,"b",1,0.5,0.500105,0.493193,0.25,3,13,0.583333,0.166667,0,0,NA,TRUE,"Male","Response-Locked","20-35"
"2","04.17.2018 09.41.29.126",48,2,"M",32,"experiment","Detect","Response-Locked",5,"noaudio_c_004_critical_pedestrian.mp4","b",30,0.583333,18,0,0,4.39,4.4,3.816667,4.416667,0,3.818333,4.4,"b",1,0.5,0.500122,0.266268,0.25,3,14,0.583333,0.166667,-1,1,NA,TRUE,"Male","Response-Locked","20-35"
"2","04.17.2018 09.41.31.009",49,2,"M",32,"experiment","Detect","Response-Locked",299,"noaudio_c_critical_283.mp4","b",30,0.416667,13,0,0,6.1,6.1,5.683333,6.116667,0,5.685,6.1,"b",1,0.5,0.500388,0.639134,0.25,3,15,0.416667,0.166667,0,0,NA,TRUE,"Male","Response-Locked","20-35"
"2","04.17.2018 09.41.33.092",50,2,"M",32,"experiment","Detect","Cue-Locked",181,"noaudio_c_critical_112.mp4","b",30,0.75,23,0,0,3.45,3.466667,3.266667,4.033333,0,3.268333,4.033333,"b",1,0.5,0.500327,0.79247,0.25,1,15,0.75,0.166667,-1,1,NA,TRUE,"Male","Cue-Locked","20-35"
"2","04.17.2018 09.41.35.676",51,2,"M",32,"experiment","Detect","Cue-Locked",65,"noaudio_c_036_no_event_2.mp4","N",30,0.583333,18,0,0,NA,NA,1.133333,1.733333,0,1.135,1.733333,"N",1,0.5,0.500159,0.625887,0.25,1,16,0.583333,0.166667,0,0,NA,TRUE,"Male","Cue-Locked","20-35"
"2","04.17.2018 09.41.37.925",52,2,"M",32,"experiment","Detect","Response-Locked",428,"noaudio_c_no_event_139.mp4","N",25,0.416667,10,-1,0,NA,NA,2.8,3.2,0,2.802,3.2,"N",1,0.5,0.500189,0.504667,0.25,3,16,0.416667,0.166667,0,0,NA,TRUE,"Male","Response-Locked","20-35"
"2","04.17.2018 09.41.39.775",53,2,"M",32,"experiment","Detect","Cue-Locked",400,"noaudio_c_no_event_112.mp4","N",30,0.583333,18,0,0,NA,NA,5.533333,6.133333,0,5.535,6.133333,"N",1,0.5,0.500173,0.402019,0.25,1,17,0.583333,0.166667,0,0,NA,TRUE,"Male","Cue-Locked","20-35"
"2","04.17.2018 09.41.41.792",54,2,"M",32,"experiment","Detect","Response-Locked",146,"noaudio_c_critical_066.mp4","b",29.97003,0.416667,12,0,1,1.8,1.8018,1.385133,1.785533,0,1.386802,1.768433,"b",1,0.5,0.500155,0.34486,0.25,3,17,0.416667,0.166667,-1,0,NA,TRUE,"Male","Response-Locked","20-35"
"2","04.17.2018 09.41.43.559",55,2,"M",32,"experiment","Detect","Response-Locked",319,"noaudio_c_no_event_020.mp4","N",30,0.25,8,0,0,NA,NA,0.933333,1.2,0,0.935,1.2,"b",0,0.5,0.50012,1.115842,0.25,3,18,0.25,0.166667,1,1,NA,FALSE,"Male","Response-Locked","20-35"
"2","04.17.2018 09.41.45.959",56,2,"M",32,"experiment","Detect","Response-Locked",214,"noaudio_c_critical_166.mp4","b",29.97003,0.375,11,0,1,6.9,6.9069,6.5319,6.898933,0,6.533568,6.873533,"b",1,0.5,0.500142,0.558031,0.25,3,19,0.375,0.125,0,0,NA,TRUE,"Male","Response-Locked","20-35"
"2","04.17.2018 09.41.47.909",57,2,"M",32,"experiment","Detect","Cue-Locked",242,"noaudio_c_critical_206.mp4","b",30,0.583333,18,0,0,2.7,2.7,2.5,3.1,0,2.501667,3.1,"b",1,0.5,0.500509,0.230001,0.25,1,18,0.583333,0.166667,-1,0,NA,TRUE,"Male","Cue-Locked","20-35"
"2","04.17.2018 09.41.49.758",58,2,"M",32,"experiment","Detect","Response-Locked",485,"noaudio_c_no_event_193c.mp4","N",29.97003,0.375,11,0,0,NA,NA,3.470133,3.837167,0,3.471802,3.837167,"N",1,0.5,0.50012,0.805477,0.25,3,20,0.375,0.125,0,0,NA,TRUE,"Male","Response-Locked","20-35"
"2","04.17.2018 09.41.51.942",59,2,"M",32,"experiment","Detect","Response-Locked",129,"noaudio_c_critical_046.mp4","b",29.75,0.375,11,0,1,3.4,3.394958,3.019958,3.389706,0,3.021691,3.363919,"b",1,0.5,0.500144,0.460968,0.25,3,21,0.375,0.125,-1,1,NA,TRUE,"Male","Response-Locked","20-35"
"2","04.17.2018 09.41.53.792",60,2,"M",32,"experiment","Detect","Response-Locked",31,"noaudio_c_016_no_event_1.mp4","N",29.97003,0.25,7,0,1,NA,NA,7.574233,7.8078,0,7.575902,7.8078,"N",1,0.5,0.500106,0.708985,0.25,3,22,0.25,0.125,0,0,NA,TRUE,"Male","Response-Locked","20-35"
"2","04.17.2018 09.41.55.758",61,2,"M",32,"experiment","Detect","Cue-Locked",306,"noaudio_c_no_event_003.mp4","N",29.97003,0.416667,12,0,2,NA,NA,0.066733,0.467133,0,0.068402,0.433767,"N",1,0.5,0.500164,0.892371,0.25,1,19,0.416667,0.166667,0,0,NA,TRUE,"Male","Cue-Locked","20-35"
"2","04.17.2018 09.41.58.075",62,2,"M",32,"experiment","Detect","Cue-Locked",194,"noaudio_c_critical_133.mp4","b",25,0.416667,10,-1,0,3.5,3.52,3.32,3.72,0,3.322,3.72,"b",1,0.5,0.500182,0.640043,0.25,1,20,0.416667,0.166667,0,0,NA,TRUE,"Male","Cue-Locked","20-35"
"2","04.17.2018 09.42.00.075",63,2,"M",32,"experiment","Detect","Cue-Locked",74,"noaudio_c_041_no_event_2.mp4","N",30,0.416667,13,0,0,NA,NA,2.766667,3.2,0,2.768333,3.2,"N",1,0.5,0.500373,0.484818,0.25,1,21,0.416667,0.166667,-1,0,NA,TRUE,"Male","Cue-Locked","20-35"
"2","04.17.2018 09.42.02.075",64,2,"M",32,"experiment","Detect","Cue-Locked",70,"noaudio_c_039_no_event_2.mp4","N",30,0.25,8,0,0,NA,NA,4,4.266667,0,4.001667,4.266667,"b",0,0.5,0.500187,0.731065,0.25,1,22,0.25,0.166667,1,1,NA,FALSE,"Male","Cue-Locked","20-35"
"2","04.17.2018 09.42.04.092",65,2,"M",32,"experiment","Detect","Cue-Locked",61,"noaudio_c_034_critical_crash_in_lane.mp4","b",24,0.375,9,2,0,5.5,5.5,5.3,5.675,0,5.302083,5.666667,"b",1,0.5,0.500422,0.754159,0.25,1,23,0.375,0.125,0,0,NA,TRUE,"Male","Cue-Locked","20-35"
"2","04.17.2018 09.42.06.308",66,2,"M",32,"experiment","Detect","Response-Locked",199,"noaudio_c_critical_139.mp4","b",25,0.25,6,-1,1,4.7,4.72,4.47,4.71,0,4.472,4.68,"N",0,0.5,0.500243,0.885677,0.25,3,23,0.25,0.125,1,1,NA,FALSE,"Male","Response-Locked","20-35"
"2","04.17.2018 09.42.08.408",67,2,"M",32,"experiment","Detect","Response-Locked",103,"noaudio_c_critical_003.mp4","b",29.97003,0.375,11,0,1,6.1,6.1061,5.7311,6.098133,0,5.732768,6.072733,"N",0,0.5,0.500115,0.797385,0.25,3,24,0.375,0.125,1,0,NA,FALSE,"Male","Response-Locked","20-35"
"2","04.17.2018 09.42.10.591",68,2,"M",32,"experiment","Detect","Cue-Locked",115,"noaudio_c_critical_022.mp4","b",29.97003,0.375,11,0,0,1.2,1.2012,1.0012,1.368233,0,1.002868,1.368033,"N",0,0.5,0.500122,0.492772,0.25,1,24,0.375,0.125,1,0,NA,FALSE,"Male","Cue-Locked","20-35"
"2","04.17.2018 09.42.12.474",69,2,"M",32,"experiment","Detect","Cue-Locked",360,"noaudio_c_no_event_066.mp4","N",29.97003,0.5,15,0,0,NA,NA,5.3053,5.8058,0,5.306968,5.8058,"N",1,0.5,0.500144,0.596564,0.25,1,25,0.5,0.125,0,0,NA,TRUE,"Male","Cue-Locked","20-35"
"2","04.17.2018 09.42.14.658",70,2,"M",32,"experiment","Detect","Response-Locked",237,"noaudio_c_critical_200.mp4","b",30,0.5,15,0,0,3.5,3.5,3,3.5,0,3.001667,3.5,"b",1,0.5,0.500526,0.501597,0.25,3,25,0.5,0.125,0,0,NA,TRUE,"Male","Response-Locked","20-35"
"2","04.17.2018 09.42.20.908",71,2,"M",32,"experiment","Detect","Response-Locked",36,"noaudio_c_019_no_event_1.mp4","N",28.901734,0.5,14,0,1,NA,NA,3.806,4.2904,0,3.807894,4.265814,"N",1,0.5,0.500126,0.711871,0.25,3,26,0.5,0.125,0,0,NA,TRUE,"Male","Response-Locked","20-35"
"2","04.17.2018 09.42.23.108",72,2,"M",32,"experiment","Detect","Response-Locked",232,"noaudio_c_critical_192.mp4","b",29.97003,0.5,15,0,0,1.2,1.2012,0.7012,1.2017,0,0.702868,1.2012,"b",1,0.5,0.500229,0.666936,0.25,3,27,0.5,0.125,-1,1,NA,TRUE,"Male","Response-Locked","20-35"
"2","04.17.2018 09.42.25.341",73,2,"M",32,"experiment","Detect","Cue-Locked",343,"noaudio_c_no_event_047.mp4","N",29.97003,0.5,15,0,0,NA,NA,6.639967,7.140467,0,6.641635,7.140467,"N",1,0.5,0.500121,0.936192,0.25,1,26,0.5,0.125,0,0,NA,TRUE,"Male","Cue-Locked","20-35"
"2","04.17.2018 09.42.27.824",74,2,"M",32,"experiment","Detect","Response-Locked",163,"noaudio_c_critical_091.mp4","b",30,0.40625,12,0,1,2.66,2.666667,2.260417,2.660417,0,2.262083,2.633333,"b",1,0.5,0.500365,0.684418,0.25,3,28,0.40625,0.09375,0,0,NA,TRUE,"Male","Response-Locked","20-35"
"2","04.17.2018 09.42.29.924",75,2,"M",32,"experiment","Detect","Cue-Locked",124,"noaudio_c_critical_036.mp4","b",30,0.5,15,0,0,4.6,4.6,4.4,4.9,0,4.401667,4.9,"b",1,0.5,0.50012,0.515267,0.25,1,27,0.5,0.125,-1,1,NA,TRUE,"Male","Cue-Locked","20-35"
"2","04.17.2018 09.42.31.957",76,2,"M",32,"experiment","Detect","Cue-Locked",4,"noaudio_c_003_critical_stop.mp4","b",29.97003,0.375,11,0,0,1.1,1.1011,0.9011,1.268133,0,0.902768,1.267933,"b",1,0.5,0.50012,0.621093,0.25,1,28,0.375,0.125,0,0,NA,TRUE,"Male","Cue-Locked","20-35"
"2","04.17.2018 09.42.33.957",77,2,"M",32,"experiment","Detect","Response-Locked",226,"noaudio_c_critical_185.mp4","b",29.97003,0.40625,12,0,1,6.1,6.1061,5.69985,6.10025,0,5.701518,6.072733,"N",0,0.5,0.500203,1.061566,0.25,3,29,0.40625,0.09375,1,1,NA,FALSE,"Male","Response-Locked","20-35"
"2","04.17.2018 09.42.36.440",78,2,"M",32,"experiment","Detect","Cue-Locked",95,"noaudio_c_052_no_event_1.mp4","N",30,0.375,11,0,0,NA,NA,7.166667,7.533333,0,7.168333,7.533333,"N",1,0.5,0.500123,0.940558,0.25,1,29,0.375,0.125,0,0,NA,TRUE,"Male","Cue-Locked","20-35"
"2","04.17.2018 09.42.38.774",79,2,"M",32,"experiment","Detect","Cue-Locked",347,"noaudio_c_no_event_052.mp4","N",29.97003,0.375,11,0,0,NA,NA,0.233567,0.6006,0,0.235235,0.6006,"N",1,0.5,0.500142,0.7685,0.25,1,30,0.375,0.125,-1,0,NA,TRUE,"Male","Cue-Locked","20-35"
"2","04.17.2018 09.42.40.924",80,2,"M",32,"experiment","Detect","Cue-Locked",381,"noaudio_c_no_event_088.mp4","N",29.239766,0.25,7,0,1,NA,NA,3.4884,3.7278,0,3.490281,3.702771,"N",1,0.5,0.500093,0.68195,0.25,1,31,0.25,0.125,0,0,NA,TRUE,"Male","Cue-Locked","20-35"
"2","04.17.2018 09.42.42.907",81,2,"M",32,"experiment","Detect","Response-Locked",309,"noaudio_c_no_event_006.mp4","N",30,0.5,15,0,0,NA,NA,4.033333,4.533333,0,4.035,4.533333,"N",1,0.5,0.500382,0.663501,0.25,3,30,0.5,0.09375,0,0,NA,TRUE,"Male","Response-Locked","20-35"
"2","04.17.2018 09.42.45.140",82,2,"M",32,"experiment","Detect","Response-Locked",464,"noaudio_c_no_event_173.mp4","N",30,0.5,15,0,0,NA,NA,3.133333,3.633333,0,3.135,3.633333,"N",1,0.5,0.500105,0.423188,0.25,3,31,0.5,0.09375,0,0,NA,TRUE,"Male","Response-Locked","20-35"
"2","04.17.2018 09.42.47.123",83,2,"M",32,"experiment","Detect","Response-Locked",484,"noaudio_c_no_event_193b.mp4","N",29.97003,0.5,15,0,0,NA,NA,2.1021,2.6026,0,2.103768,2.6026,"N",1,0.5,0.50029,0.66233,0.25,3,32,0.5,0.09375,-1,1,NA,TRUE,"Male","Response-Locked","20-35"
"2","04.17.2018 09.42.49.340",84,2,"M",32,"experiment","Detect","Response-Locked",247,"noaudio_c_critical_213.mp4","b",24,0.40625,10,2,0,3.9,3.916667,3.510417,3.927083,0,3.5125,3.916667,"N",0,0.5,0.500242,0.484093,0.25,3,33,0.40625,0.09375,1,1,NA,FALSE,"Male","Response-Locked","20-35"
"2","04.17.2018 09.42.51.340",85,2,"M",32,"experiment","Detect","Response-Locked",125,"noaudio_c_critical_038.mp4","b",30,0.476563,14,0,1,4.87,4.866667,4.390104,4.856771,0,4.391771,4.833333,"b",1,0.5,0.500078,0.676637,0.25,3,34,0.476563,0.070312,0,0,NA,TRUE,"Male","Response-Locked","20-35"
"2","04.17.2018 09.42.53.507",86,2,"M",32,"experiment","Detect","Cue-Locked",497,"noaudio_c_no_event_206.mp4","N",29.97003,0.25,7,0,1,NA,NA,7.173833,7.4074,0,7.175502,7.4074,"N",1,0.5,0.500111,0.991225,0.25,1,32,0.25,0.125,0,0,NA,TRUE,"Male","Cue-Locked","20-35"
"2","04.17.2018 09.42.55.757",87,2,"M",32,"experiment","Detect","Response-Locked",317,"noaudio_c_no_event_016.mp4","N",30,0.476563,14,0,0,NA,NA,3.9,4.366667,0,3.901667,4.366667,"N",1,0.5,0.50014,0.497816,0.25,3,35,0.476563,0.070312,0,0,NA,TRUE,"Male","Response-Locked","20-35"
"2","04.17.2018 09.42.57.740",88,2,"M",32,"experiment","Detect","Response-Locked",450,"noaudio_c_no_event_156.mp4","N",29.97003,0.476563,14,0,0,NA,NA,5.271933,5.739067,0,5.273602,5.739067,"N",1,0.5,0.500127,0.480787,0.25,3,36,0.476563,0.070312,-1,1,NA,TRUE,"Male","Response-Locked","20-35"
"2","04.17.2018 09.42.59.756",89,2,"M",32,"experiment","Detect","Cue-Locked",501,"noaudio_c_no_event_210.mp4","N",29.97003,0.25,7,0,1,NA,NA,7.4074,7.640967,0,7.409068,7.640967,"N",1,0.5,0.500157,0.654439,0.25,1,33,0.25,0.125,-1,0,NA,TRUE,"Male","Cue-Locked","20-35"
"2","04.17.2018 09.43.01.673",90,2,"M",32,"experiment","Detect","Response-Locked",269,"noaudio_c_critical_237.mp4","b",29.97003,0.40625,12,0,1,3.81,3.8038,3.39755,3.79795,0,3.399218,3.770433,"b",1,0.5,0.500137,0.612643,0.25,3,37,0.40625,0.070312,0,0,NA,TRUE,"Male","Response-Locked","20-35"
"2","04.17.2018 09.43.03.756",91,2,"M",32,"experiment","Detect","Cue-Locked",426,"noaudio_c_no_event_135.mp4","N",30,0.125,4,0,0,NA,NA,4.333333,4.466667,0,4.335,4.466667,"b",0,0.5,0.500103,0.917115,0.25,1,34,0.125,0.125,1,1,NA,FALSE,"Male","Cue-Locked","20-35"
"2","04.17.2018 09.43.05.923",92,2,"M",32,"experiment","Detect","Cue-Locked",375,"noaudio_c_no_event_081.mp4","N",25,0.25,6,-1,0,NA,NA,7.4,7.64,0,7.402,7.64,"N",1,0.5,0.500353,0.861712,0.25,1,35,0.25,0.125,0,0,NA,TRUE,"Male","Cue-Locked","20-35"
"2","04.17.2018 09.43.08.006",93,2,"M",32,"experiment","Detect","Cue-Locked",482,"noaudio_c_no_event_192.mp4","N",29.97003,0.25,7,0,1,NA,NA,0,0.233567,0,0.066733,0.266933,"N",1,0.5,0.500165,0.850935,0.25,1,36,0.25,0.125,0,0,NA,TRUE,"Male","Cue-Locked","20-35"
"2","04.17.2018 09.43.10.106",94,2,"M",32,"experiment","Detect","Response-Locked",130,"noaudio_c_critical_047.mp4","b",29.97003,0.40625,12,0,1,3.8,3.8038,3.39755,3.79795,0,3.399218,3.770433,"N",0,0.5,0.500224,0.676704,0.25,3,38,0.40625,0.070312,1,1,NA,FALSE,"Male","Response-Locked","20-35"
"2","04.17.2018 09.43.12.206",95,2,"M",32,"experiment","Detect","Response-Locked",153,"noaudio_c_critical_078.mp4","b",29.97003,0.476563,14,0,1,2.73,2.736067,2.259504,2.726638,0,2.261172,2.7027,"b",1,0.5,0.500172,0.538433,0.25,3,39,0.476563,0.070312,0,0,NA,TRUE,"Male","Response-Locked","20-35"
"2","04.17.2018 09.43.14.289",96,2,"M",32,"experiment","Detect","Response-Locked",408,"noaudio_c_no_event_120.mp4","N",29.97003,0.476563,14,0,0,NA,NA,0.9009,1.368033,0,0.902568,1.368033,"N",1,0.5,0.500298,0.694726,0.25,3,40,0.476563,0.070312,0,0,NA,TRUE,"Male","Response-Locked","20-35"
"2","04.17.2018 09.43.16.473",97,2,"M",32,"experiment","Detect","Response-Locked",424,"noaudio_c_no_event_133.mp4","N",25,0.476563,12,-2,0,NA,NA,2.04,2.52,0,2.042,2.52,"N",1,0.5,0.500624,0.418884,0.25,3,41,0.476563,0.070312,-1,1,NA,TRUE,"Male","Response-Locked","20-35"
"2","04.17.2018 09.43.18.306",98,2,"M",32,"experiment","Detect","Response-Locked",111,"noaudio_c_critical_018.mp4","b",30,0.423828,13,0,0,7.33,7.333333,6.909505,7.342839,0,6.911172,7.333333,"b",1,0.5,0.500064,0.483297,0.25,3,42,0.423828,0.052734,0,0,NA,TRUE,"Male","Response-Locked","20-35"
"2","04.17.2018 09.43.20.289",99,2,"M",32,"experiment","Detect","Response-Locked",35,"noaudio_c_019_critical_swerve.mp4","b",28.901734,0.423828,12,0,1,3.3,3.287,2.863172,3.278372,0,2.865066,3.260034,"b",1,0.5,0.500078,0.335883,0.25,3,43,0.423828,0.052734,0,0,NA,TRUE,"Male","Response-Locked","20-35"
"2","04.17.2018 09.43.22.056",100,2,"M",32,"experiment","Detect","Cue-Locked",241,"noaudio_c_critical_204.mp4","b",29.97003,0.25,7,0,1,3.5,3.5035,3.3035,3.537067,0,3.305168,3.536867,"N",0,0.5,0.499932,0.751657,0.25,1,37,0.25,0.125,1,0,NA,FALSE,"Male","Cue-Locked","20-35"
"2","04.17.2018 09.43.24.056",101,2,"M",32,"experiment","Detect","Cue-Locked",8,"noaudio_c_005_critical_unsignaled_turn.mp4","b",30,0.375,11,0,0,1.167,1.166667,0.966667,1.333333,0,0.968333,1.333333,"b",1,0.5,0.500386,0.556259,0.25,1,38,0.375,0.125,0,0,NA,TRUE,"Male","Cue-Locked","20-35"
"2","04.17.2018 09.43.26.006",102,2,"M",32,"experiment","Detect","Response-Locked",376,"noaudio_c_no_event_082.mp4","N",29.97003,0.423828,13,0,0,NA,NA,7.440767,7.874533,0,7.442435,7.874533,"N",1,0.5,0.500047,0.788929,0.25,3,44,0.423828,0.052734,-1,0,NA,TRUE,"Male","Response-Locked","20-35"
"2","04.17.2018 09.43.28.239",103,2,"M",32,"experiment","Detect","Cue-Locked",16,"noaudio_c_008_no_event_1.mp4","N",29.97003,0.375,11,0,0,NA,NA,5.572233,5.939267,0,5.573902,5.939267,"N",1,0.5,0.500303,1.099635,0.25,1,39,0.375,0.125,0,0,NA,TRUE,"Male","Cue-Locked","20-35"
"2","04.17.2018 09.43.30.722",104,2,"M",32,"experiment","Detect","Cue-Locked",305,"noaudio_c_no_event_002.mp4","N",29.97003,0.375,11,0,0,NA,NA,4.838167,5.2052,0,4.839835,5.2052,"N",1,0.5,0.500086,0.784854,0.25,1,40,0.375,0.125,-1,1,NA,TRUE,"Male","Cue-Locked","20-35"
"2","04.17.2018 09.43.32.889",105,2,"M",32,"experiment","Detect","Response-Locked",79,"noaudio_c_044_no_event_1.mp4","N",29.97003,0.371094,11,0,0,NA,NA,2.035367,2.4024,0,2.037035,2.4024,"N",1,0.5,0.500053,0.598405,0.25,3,45,0.371094,0.052734,0,0,NA,TRUE,"Male","Response-Locked","20-35"
"2","04.17.2018 09.43.34.922",106,2,"M",32,"experiment","Detect","Cue-Locked",142,"noaudio_c_critical_060.mp4","b",29.97003,0.28125,8,0,0,3.8,3.8038,3.6038,3.870733,0,3.605468,3.870533,"b",1,0.5,0.5003,1.097129,0.25,1,41,0.28125,0.09375,0,0,NA,TRUE,"Male","Cue-Locked","20-35"
"2","04.17.2018 09.43.37.305",107,2,"M",32,"experiment","Detect","Cue-Locked",475,"noaudio_c_no_event_186.mp4","N",29.97003,0.28125,8,0,0,NA,NA,5.672333,5.939267,0,5.674002,5.939267,"N",1,0.5,0.500137,0.991826,0.25,1,42,0.28125,0.09375,0,0,NA,TRUE,"Male","Cue-Locked","20-35"
"2","04.17.2018 09.43.39.589",108,2,"M",32,"experiment","Detect","Cue-Locked",200,"noaudio_c_critical_140.mp4","b",29.97003,0.28125,8,0,0,0.6,0.6006,0.4006,0.667533,0,0.402268,0.667333,"N",0,0.5,0.500281,0.72781,0.25,1,43,0.28125,0.09375,1,1,NA,FALSE,"Male","Cue-Locked","20-35"
"2","04.17.2018 09.43.41.672",109,2,"M",32,"experiment","Detect","Cue-Locked",363,"noaudio_c_no_event_068.mp4","N",30,0.375,11,0,0,NA,NA,6.1,6.466667,0,6.101667,6.466667,"N",1,0.5,0.500289,0.498566,0.25,1,44,0.375,0.09375,0,0,NA,TRUE,"Male","Cue-Locked","20-35"
"2","04.17.2018 09.43.43.555",110,2,"M",32,"experiment","Detect","Response-Locked",313,"noaudio_c_no_event_011.mp4","N",30,0.371094,11,0,0,NA,NA,4.333333,4.7,0,4.335,4.7,"N",1,0.5,0.500086,0.626166,0.25,3,46,0.371094,0.052734,0,0,NA,TRUE,"Male","Response-Locked","20-35"
"2","04.17.2018 09.43.45.572",111,2,"M",32,"experiment","Detect","Cue-Locked",21,"noaudio_c_011_no_event_1.mp4","N",30,0.375,11,0,0,NA,NA,2.066667,2.433333,0,2.068333,2.433333,"N",1,0.5,0.500123,0.839392,0.25,1,45,0.375,0.09375,0,0,NA,TRUE,"Male","Cue-Locked","20-35"
"2","04.17.2018 09.43.47.788",112,2,"M",32,"experiment","Detect","Response-Locked",488,"noaudio_c_no_event_198.mp4","N",29.97003,0.371094,11,0,0,NA,NA,5.238567,5.6056,0,5.240235,5.6056,"N",1,0.5,0.5004,0.633904,0.25,3,47,0.371094,0.052734,-1,0,NA,TRUE,"Male","Response-Locked","20-35"
"2","04.17.2018 09.43.49.855",113,2,"M",32,"experiment","Detect","Response-Locked",411,"noaudio_c_no_event_123.mp4","N",29.97003,0.318359,10,0,0,NA,NA,5.005,5.338667,0,5.006668,5.338667,"N",1,0.5,0.500066,0.514785,0.25,3,48,0.318359,0.052734,0,0,NA,TRUE,"Male","Response-Locked","20-35"
"2","04.17.2018 09.43.51.722",114,2,"M",32,"experiment","Detect","Response-Locked",368,"noaudio_c_no_event_073.mp4","N",29.97003,0.318359,10,0,0,NA,NA,6.172833,6.5065,0,6.174502,6.5065,"N",1,0.5,0.500084,0.580231,0.25,3,49,0.318359,0.052734,0,0,NA,TRUE,"Male","Response-Locked","20-35"
"2","04.17.2018 09.43.53.655",115,2,"M",32,"experiment","Detect","Cue-Locked",133,"noaudio_c_critical_050.mp4","b",24,0.375,9,2,0,1.96,1.958333,1.758333,2.133333,0,1.760417,2.125,"N",0,0.5,0.500113,0.657013,0.25,1,46,0.375,0.09375,1,0,NA,FALSE,"Male","Cue-Locked","20-35"
"2","04.17.2018 09.43.55.788",116,2,"M",32,"experiment","Detect","Cue-Locked",479,"noaudio_c_no_event_190.mp4","N",29.97003,0.46875,14,0,0,NA,NA,7.340667,7.8078,0,7.342335,7.8078,"N",1,0.5,0.500049,0.611096,0.25,1,47,0.46875,0.09375,0,0,NA,TRUE,"Male","Cue-Locked","20-35"
"2","04.17.2018 09.43.57.888",117,2,"M",32,"experiment","Detect","Cue-Locked",186,"noaudio_c_critical_123.mp4","b",29.97003,0.46875,14,0,0,5.2,5.2052,5.0052,5.472333,0,5.006868,5.472133,"b",1,0.5,0.500088,0.633615,0.25,1,48,0.46875,0.09375,0,0,NA,TRUE,"Male","Cue-Locked","20-35"
"2","04.17.2018 09.44.00.071",118,2,"M",32,"experiment","Detect","Response-Locked",62,"noaudio_c_035_critical_crash_in_lane.mp4","b",30,0.318359,10,0,0,4.967,4.966667,4.648307,4.981641,0,4.649974,4.966667,"b",1,0.5,0.500234,0.434832,0.25,3,50,0.318359,0.052734,-1,0,NA,TRUE,"Male","Response-Locked","20-35"
"2","04.17.2018 09.44.01.854",119,2,"M",32,"experiment","Detect","Cue-Locked",267,"noaudio_c_critical_235.mp4","b",29.97003,0.46875,14,0,0,2.4,2.4024,2.2024,2.669533,0,2.204068,2.669333,"b",1,0.5,0.500356,1.49443,0.25,1,49,0.46875,0.09375,-1,1,NA,TRUE,"Male","Cue-Locked","20-35"
"2","04.17.2018 09.44.04.888",120,2,"M",32,"experiment","Detect","Cue-Locked",149,"noaudio_c_critical_070.mp4","b",29.97003,0.375,11,0,0,5.05,5.038367,4.838367,5.2054,0,4.840035,5.2052,"N",0,0.5,0.500233,0.786156,0.25,1,50,0.375,0.09375,1,1,NA,FALSE,"Male","Cue-Locked","20-35"
"2","04.17.2018 09.44.10.471",121,2,"M",32,"experiment","Detect","Cue-Locked",126,"noaudio_c_critical_039.mp4","b",30,0.445313,13,0,0,6.26,6.266667,6.066667,6.5,0,6.068333,6.5,"N",0,0.5,0.500103,0.658749,0.25,1,51,0.445313,0.070312,1,0,NA,FALSE,"Male","Cue-Locked","20-35"
"2","04.17.2018 09.44.12.588",122,2,"M",32,"experiment","Detect","Cue-Locked",81,"noaudio_c_045_no_event_1.mp4","N",29.97003,0.515625,15,0,1,NA,NA,2.869533,3.370033,0,2.871202,3.370033,"N",1,0.5,0.500222,0.757582,0.25,1,52,0.515625,0.070312,0,0,NA,TRUE,"Male","Cue-Locked","20-35"
"2","04.17.2018 09.44.14.921",123,2,"M",32,"experiment","Detect","Cue-Locked",201,"noaudio_c_critical_141.mp4","b",29.97003,0.515625,15,0,1,1.84,1.835167,1.635167,2.135667,0,1.636835,2.135467,"N",0,0.5,0.500063,0.723104,0.25,1,53,0.515625,0.070312,1,0,NA,FALSE,"Male","Cue-Locked","20-35"
"2","04.17.2018 09.44.17.171",124,2,"M",32,"experiment","Detect","Cue-Locked",425,"noaudio_c_no_event_134.mp4","N",30,0.585938,18,0,0,NA,NA,3.333333,3.933333,0,3.335,3.933333,"N",1,0.5,0.500102,0.677499,0.25,1,54,0.585938,0.070312,0,0,NA,TRUE,"Male","Cue-Locked","20-35"
"2","04.17.2018 09.44.19.471",125,2,"M",32,"experiment","Detect","Response-Locked",423,"noaudio_c_no_event_132.mp4","N",30,0.265625,8,0,0,NA,NA,1.166667,1.433333,0,1.168333,1.433333,"b",0,0.5,0.500141,0.762203,0.25,3,51,0.265625,0.052734,1,1,NA,FALSE,"Male","Response-Locked","20-35"
"2","04.17.2018 09.44.21.521",126,2,"M",32,"experiment","Detect","Cue-Locked",230,"noaudio_c_critical_189.mp4","b",30,0.585938,18,0,0,5,5,4.8,5.4,0,4.801667,5.4,"b",1,0.5,0.500111,0.206414,0.25,1,55,0.585938,0.070312,0,0,NA,TRUE,"Male","Cue-Locked","20-35"
"2","04.17.2018 09.44.23.404",127,2,"M",32,"experiment","Detect","Response-Locked",208,"noaudio_c_critical_154.mp4","N",29.97003,0.318359,10,0,0,NA,NA,1.3013,1.634967,0,1.302968,1.634967,"N",1,0.5,0.500083,0.667435,0.25,3,52,0.318359,0.052734,0,0,NA,TRUE,"Male","Response-Locked","20-35"
"2","04.17.2018 09.44.25.421",128,2,"M",32,"experiment","Detect","Cue-Locked",215,"noaudio_c_critical_167.mp4","b",29.97003,0.585938,18,0,0,6.4,6.4064,6.2064,6.807,0,6.208068,6.8068,"b",1,0.5,0.500059,0.610749,0.25,1,56,0.585938,0.070312,-1,1,NA,TRUE,"Male","Cue-Locked","20-35"
"2","04.17.2018 09.44.27.654",129,2,"M",32,"experiment","Detect","Cue-Locked",188,"noaudio_c_critical_126.mp4","b",29.97003,0.515625,15,0,1,1.34,1.334667,1.134667,1.635167,0,1.136335,1.634967,"b",1,0.5,0.500094,0.558434,0.25,1,57,0.515625,0.070312,0,0,NA,TRUE,"Male","Cue-Locked","20-35"
"2","04.17.2018 09.44.29.737",130,2,"M",32,"experiment","Detect","Response-Locked",483,"noaudio_c_no_event_193.mp4","N",29.97003,0.318359,10,0,0,NA,NA,6.3063,6.639967,0,6.307968,6.639967,"N",1,0.5,0.500288,0.831972,0.25,3,53,0.318359,0.052734,0,0,NA,TRUE,"Male","Response-Locked","20-35"
"2","04.17.2018 09.44.31.920",131,2,"M",32,"experiment","Detect","Cue-Locked",231,"noaudio_c_critical_191.mp4","b",30,0.515625,15,0,1,1.5,1.5,1.3,1.8,0,1.301667,1.8,"b",1,0.5,0.500022,0.450866,0.25,1,58,0.515625,0.070312,0,0,NA,TRUE,"Male","Cue-Locked","20-35"
"2","04.17.2018 09.44.33.887",132,2,"M",32,"experiment","Detect","Cue-Locked",46,"noaudio_c_025_no_event_1.mp4","N",24,0.515625,12,2,0,NA,NA,2.708333,3.208333,0,2.710417,3.208333,"N",1,0.5,0.500101,1.293619,0.25,1,59,0.515625,0.070312,-1,0,NA,TRUE,"Male","Cue-Locked","20-35"
"2","04.17.2018 09.44.36.804",133,2,"M",32,"experiment","Detect","Response-Locked",2,"noaudio_c_002_critical_pedestrian.mp4","b",30,0.318359,10,0,0,5.23,5.233333,4.914974,5.248307,0,4.916641,5.233333,"b",1,0.5,0.500152,0.52069,0.25,3,54,0.318359,0.052734,-1,1,NA,TRUE,"Male","Response-Locked","20-35"
"2","04.17.2018 09.44.38.670",134,2,"M",32,"experiment","Detect","Response-Locked",10,"noaudio_c_006_critical_unsignaled_turn.mp4","b",30,0.265625,8,0,0,2.5,2.5,2.234375,2.501042,0,2.236042,2.5,"b",1,0.5,0.500121,0.584448,0.25,3,55,0.265625,0.052734,0,0,NA,TRUE,"Male","Response-Locked","20-35"
"2","04.17.2018 09.44.40.537",135,2,"M",32,"experiment","Detect","Cue-Locked",396,"noaudio_c_no_event_107.mp4","N",30,0.445313,13,0,0,NA,NA,4,4.433333,0,4.001667,4.433333,"N",1,0.5,0.500054,0.624932,0.25,1,60,0.445313,0.070312,0,0,NA,TRUE,"Male","Cue-Locked","20-35"
"2","04.17.2018 09.44.42.670",136,2,"M",32,"experiment","Detect","Cue-Locked",59,"noaudio_c_033_critical_swerve.mp4","b",30,0.445313,13,0,0,3.15,3.166667,2.966667,3.4,0,2.968333,3.4,"b",1,0.5,0.500138,0.472648,0.25,1,61,0.445313,0.070312,0,0,NA,TRUE,"Male","Cue-Locked","20-35"
"2","04.17.2018 09.44.44.587",137,2,"M",32,"experiment","Detect","Cue-Locked",438,"noaudio_c_no_event_147b.mp4","N",24,0.445313,11,2,1,NA,NA,0.25,0.708333,0,0.252083,0.666667,"N",1,0.5,0.500396,0.656373,0.25,1,62,0.445313,0.070312,-1,0,NA,TRUE,"Male","Cue-Locked","20-35"
"2","04.17.2018 09.44.46.870",138,2,"M",32,"experiment","Detect","Response-Locked",436,"noaudio_c_no_event_146.mp4","N",29.97003,0.265625,8,0,0,NA,NA,3.536867,3.8038,0,3.538535,3.8038,"N",1,0.5,0.500264,0.564343,0.25,3,56,0.265625,0.052734,0,0,NA,TRUE,"Male","Response-Locked","20-35"
"2","04.17.2018 09.44.48.720",139,2,"M",32,"experiment","Detect","Response-Locked",277,"noaudio_c_critical_250.mp4","b",29.97003,0.265625,8,0,0,5.2,5.2052,4.939575,5.206508,0,4.941243,5.2052,"b",1,0.5,0.500128,0.441744,0.25,3,57,0.265625,0.052734,-1,0,NA,TRUE,"Male","Response-Locked","20-35"
"2","04.17.2018 09.44.50.503",140,2,"M",32,"experiment","Detect","Cue-Locked",378,"noaudio_c_no_event_084.mp4","N",30,0.375,11,0,0,NA,NA,6.7,7.066667,0,6.701667,7.066667,"b",0,0.5,0.500247,0.618552,0.25,1,63,0.375,0.070312,1,1,NA,FALSE,"Male","Cue-Locked","20-35"
