,subNum, blockNum, trialNum, curvature, width,occludedHalf, startSide, response, RT,,,,,
,1,1,1,-45,0.80 ,1,1,1,3.620 ,,,,,
,1,1,2,15,1.20 ,1,1,0,3.610 ,,,,,
,1,1,3,30,1.20 ,2,-1,1,3.610 ,,,,,
,1,1,4,-30,0.80 ,2,-1,1,3.650 ,,,,,
,1,1,5,-15,1.00 ,2,-1,1,3.600 ,,,,,
,1,1,6,-15,1.00 ,1,1,0,3.600 ,,,,,
,1,1,7,-15,0.80 ,2,-1,1,3.590 ,,,,,
,1,1,8,-45,0.80 ,2,-1,1,3.570 ,,,,,
,1,1,9,-15,0.80 ,1,1,0,3.580 ,,,,,
,1,1,10,-45,1.00 ,1,1,1,3.610 ,,,,,
,1,1,11,0,1.00 ,1,1,0,3.590 ,,,,,
,1,1,12,0,1.20 ,1,1,0,3.600 ,,,,,
,1,1,13,-15,1.20 ,2,-1,1,3.630 ,,,,,
,1,1,14,0,0.80 ,2,-1,1,3.800 ,,,,,
,1,1,15,15,0.80 ,2,-1,1,3.670 ,,,,,
,1,1,16,-30,1.00 ,1,1,1,3.600 ,,,,,
,1,1,17,-30,0.80 ,1,1,1,3.600 ,,,,,
,1,1,18,0,0.80 ,1,1,0,3.580 ,,,,,
,1,1,19,0,1.20 ,2,-1,0,3.590 ,,,,,
,1,1,20,30,1.00 ,2,-1,0,3.610 ,,,,,
,1,1,21,0,1.00 ,2,-1,0,3.580 ,,,,,
,1,1,22,45,1.20 ,2,-1,1,4.000 ,,,,,
,1,1,23,30,1.20 ,1,1,1,3.590 ,,,,,
,1,1,24,15,0.80 ,1,1,1,3.580 ,,,,,
,1,1,25,45,1.20 ,1,1,1,3.600 ,,,,,
,1,1,26,45,0.80 ,1,1,1,3.610 ,,,,,
,1,1,27,15,1.00 ,1,1,0,3.590 ,,,,,
,1,1,28,45,1.00 ,1,1,1,3.610 ,,,,,
,1,1,29,45,0.80 ,2,-1,1,3.590 ,,,,,
,1,1,30,45,1.00 ,2,-1,1,3.870 ,,,,,
,1,1,31,-45,1.00 ,2,-1,1,3.580 ,,,,,
,1,1,32,-30,1.00 ,2,-1,1,3.580 ,,,,,
,1,1,33,-30,1.20 ,1,1,1,3.550 ,,,,,
,1,1,34,-15,1.20 ,1,1,1,3.590 ,,,,,
,1,1,35,-45,1.20 ,1,1,1,3.590 ,,,,,
,1,1,36,-30,1.20 ,2,-1,1,3.600 ,,,,,
,1,1,37,-45,1.20 ,2,-1,1,3.600 ,,,,,
,1,1,38,15,1.00 ,2,-1,0,3.740 ,,,,,
,1,1,39,30,1.00 ,1,1,0,3.570 ,,,,,
,1,1,40,30,0.80 ,2,-1,1,3.570 ,,,,,
,1,1,41,15,1.20 ,2,-1,0,3.580 ,,,,,
,1,1,42,30,0.80 ,1,1,0,3.590 ,,,,,
,1,2,1,-15,1.20 ,1,1,1,3.580 ,,,,,
,1,2,2,-45,1.00 ,2,-1,1,3.610 ,,,,,
,1,2,3,0,0.80 ,1,1,0,3.580 ,,,,,
,1,2,4,45,0.80 ,1,1,0,3.640 ,,,,,
,1,2,5,-45,0.80 ,2,-1,1,3.580 ,,,,,
,1,2,6,0,0.80 ,2,-1,0,3.460 ,,,,,
,1,2,7,-15,1.00 ,1,1,1,3.620 ,,,,,
,1,2,8,-45,0.80 ,1,1,1,3.560 ,,,,,
,1,2,9,45,1.20 ,1,1,0,3.550 ,,,,,
,1,2,10,-15,0.80 ,2,-1,1,3.600 ,,,,,
,1,2,11,-15,0.80 ,1,1,1,3.580 ,,,,,
,1,2,12,-30,0.80 ,2,-1,1,3.780 ,,,,,
,1,2,13,30,1.00 ,1,1,0,3.650 ,,,,,
,1,2,14,0,1.20 ,2,-1,0,3.650 ,,,,,
,1,2,15,45,1.20 ,2,-1,1,3.620 ,,,,,
,1,2,16,-30,1.00 ,2,-1,1,3.580 ,,,,,
,1,2,17,15,1.00 ,1,1,0,3.640 ,,,,,
,1,2,18,15,1.20 ,1,1,0,3.590 ,,,,,
,1,2,19,0,1.00 ,1,1,0,3.600 ,,,,,
,1,2,20,45,1.00 ,1,1,1,3.610 ,,,,,
,1,2,21,30,1.00 ,2,-1,1,3.590 ,,,,,
,1,2,22,45,0.80 ,2,-1,1,3.650 ,,,,,
,1,2,23,-15,1.20 ,2,-1,1,3.650 ,,,,,
,1,2,24,-45,1.00 ,1,1,1,12.800 ,,,,,
,1,2,25,-30,0.80 ,1,1,1,3.640 ,,,,,
,1,2,26,30,0.80 ,2,-1,1,3.610 ,,,,,
,1,2,27,30,1.20 ,2,-1,1,3.560 ,,,,,
,1,2,28,-45,1.20 ,2,-1,1,3.830 ,,,,,
,1,2,29,45,1.00 ,2,-1,1,3.570 ,,,,,
,1,2,30,30,0.80 ,1,1,0,3.610 ,,,,,
,1,2,31,15,1.00 ,2,-1,1,3.730 ,,,,,
,1,2,32,0,1.00 ,2,-1,0,3.610 ,,,,,
,1,2,33,30,1.20 ,1,1,0,3.530 ,,,,,
,1,2,34,15,0.80 ,1,1,0,3.570 ,,,,,
,1,2,35,-30,1.20 ,2,-1,1,3.610 ,,,,,
,1,2,36,-30,1.20 ,1,1,1,3.570 ,,,,,
,1,2,37,-15,1.00 ,2,-1,1,3.640 ,,,,,
,1,2,38,15,0.80 ,2,-1,0,3.730 ,,,,,
,1,2,39,0,1.20 ,1,1,0,5.300 ,,,,,
,1,2,40,-45,1.20 ,1,1,1,3.630 ,,,,,
,1,2,41,15,1.20 ,2,-1,0,3.580 ,,,,,
,1,2,42,-30,1.00 ,1,1,1,3.650 ,,,,,
,1,3,1,-30,1.00 ,1,1,1,3.640 ,,,,,
,1,3,2,45,1.00 ,2,-1,1,3.570 ,,,,,
,1,3,3,45,1.20 ,1,1,1,3.580 ,,,,,
,1,3,4,30,1.00 ,1,1,0,3.590 ,,,,,
,1,3,5,0,1.00 ,1,1,0,3.620 ,,,,,
,1,3,6,15,1.00 ,1,1,0,3.570 ,,,,,
,1,3,7,0,1.20 ,1,1,0,3.540 ,,,,,
,1,3,8,-45,1.20 ,2,-1,1,3.600 ,,,,,
,1,3,9,-45,1.00 ,2,-1,1,3.570 ,,,,,
,1,3,10,-45,1.20 ,1,1,1,3.580 ,,,,,
,1,3,11,0,1.20 ,2,-1,0,3.580 ,,,,,
,1,3,12,30,0.80 ,2,-1,1,3.800 ,,,,,
,1,3,13,45,1.20 ,2,-1,1,3.590 ,,,,,
,1,3,14,-15,1.00 ,1,1,1,3.550 ,,,,,
,1,3,15,0,0.80 ,2,-1,1,3.590 ,,,,,
,1,3,16,0,1.00 ,2,-1,0,3.620 ,,,,,
,1,3,17,0,0.80 ,1,1,0,3.570 ,,,,,
,1,3,18,30,1.00 ,2,-1,1,3.600 ,,,,,
,1,3,19,15,1.00 ,2,-1,0,3.580 ,,,,,
,1,3,20,-15,1.20 ,1,1,1,3.580 ,,,,,
,1,3,21,15,0.80 ,2,-1,0,3.570 ,,,,,
,1,3,22,15,0.80 ,1,1,0,3.560 ,,,,,
,1,3,23,-30,1.20 ,2,-1,1,3.560 ,,,,,
,1,3,24,45,0.80 ,1,1,0,3.560 ,,,,,
,1,3,25,45,1.00 ,1,1,1,3.880 ,,,,,
,1,3,26,-45,0.80 ,2,-1,1,3.550 ,,,,,
,1,3,27,-30,1.00 ,2,-1,1,3.580 ,,,,,
,1,3,28,30,1.20 ,2,-1,0,3.630 ,,,,,
,1,3,29,-15,1.20 ,2,-1,0,3.570 ,,,,,
,1,3,30,15,1.20 ,1,1,0,3.570 ,,,,,
,1,3,31,30,0.80 ,1,1,0,3.570 ,,,,,
,1,3,32,45,0.80 ,2,-1,1,3.570 ,,,,,
,1,3,33,-30,0.80 ,2,-1,1,3.570 ,,,,,
,1,3,34,-15,1.00 ,2,-1,1,3.580 ,,,,,
,1,3,35,-30,1.20 ,1,1,1,3.590 ,,,,,
,1,3,36,-15,0.80 ,2,-1,1,3.580 ,,,,,
,1,3,37,15,1.20 ,2,-1,0,3.570 ,,,,,
,1,3,38,-30,0.80 ,1,1,1,3.610 ,,,,,
,1,3,39,-45,1.00 ,1,1,1,3.590 ,,,,,
,1,3,40,30,1.20 ,1,1,0,3.600 ,,,,,
,1,3,41,-15,0.80 ,1,1,1,3.580 ,,,,,
,1,3,42,-45,0.80 ,1,1,1,3.550 ,,,,,
,2,1,1,0,1.00 ,2,-1,1,7.650 ,,,,,
,2,1,2,15,1.00 ,2,-1,1,4.380 ,,,,,
,2,1,3,15,1.20 ,2,-1,1,3.770 ,,,,,
,2,1,4,-45,0.80 ,2,-1,1,5.120 ,,,,,
,2,1,5,-45,1.20 ,2,-1,1,6.580 ,,,,,
,2,1,6,0,1.20 ,2,-1,0,4.870 ,,,,,
,2,1,7,30,0.80 ,2,-1,0,5.780 ,,,,,
,2,1,8,45,1.00 ,1,1,0,7.270 ,,,,,
,2,1,9,30,1.00 ,2,-1,1,6.890 ,,,,,
,2,1,10,-30,1.00 ,2,-1,1,7.100 ,,,,,
,2,1,11,15,1.20 ,1,1,0,4.100 ,,,,,
,2,1,12,15,0.80 ,1,1,0,3.710 ,,,,,
,2,1,13,45,0.80 ,1,1,0,3.800 ,,,,,
,2,1,14,-15,1.00 ,1,1,0,4.090 ,,,,,
,2,1,15,-15,1.20 ,2,-1,1,4.490 ,,,,,
,2,1,16,0,1.20 ,1,1,0,3.960 ,,,,,
,2,1,17,45,1.00 ,2,-1,0,5.910 ,,,,,
,2,1,18,30,0.80 ,1,1,0,6.240 ,,,,,
,2,1,19,-30,1.20 ,2,-1,1,3.580 ,,,,,
,2,1,20,-15,0.80 ,1,1,0,3.710 ,,,,,
,2,1,21,-45,1.00 ,2,-1,1,3.570 ,,,,,
,2,1,22,-45,1.00 ,1,1,0,3.870 ,,,,,
,2,1,23,45,0.80 ,2,-1,0,3.670 ,,,,,
,2,1,24,-15,1.20 ,1,1,1,3.930 ,,,,,
,2,1,25,30,1.20 ,1,1,0,3.710 ,,,,,
,2,1,26,15,1.00 ,1,1,0,3.690 ,,,,,
,2,1,27,-15,0.80 ,2,-1,1,3.680 ,,,,,
,2,1,28,-30,1.00 ,1,1,1,5.010 ,,,,,
,2,1,29,30,1.00 ,1,1,0,3.850 ,,,,,
,2,1,30,-45,0.80 ,1,1,1,5.310 ,,,,,
,2,1,31,30,1.20 ,2,-1,0,4.800 ,,,,,
,2,1,32,-30,0.80 ,1,1,0,3.850 ,,,,,
,2,1,33,0,1.00 ,1,1,0,3.650 ,,,,,
,2,1,34,45,1.20 ,1,1,0,3.690 ,,,,,
,2,1,35,45,1.20 ,2,-1,0,3.930 ,,,,,
,2,1,36,-45,1.20 ,1,1,1,3.670 ,,,,,
,2,1,37,0,0.80 ,1,1,0,3.640 ,,,,,
,2,1,38,-30,0.80 ,2,-1,1,3.550 ,,,,,
,2,1,39,-15,1.00 ,2,-1,1,3.680 ,,,,,
,2,1,40,0,0.80 ,2,-1,0,3.760 ,,,,,
,2,1,41,-30,1.20 ,1,1,1,3.940 ,,,,,
,2,1,42,15,0.80 ,2,-1,0,3.660 ,,,,,
,2,2,1,30,0.80 ,1,1,0,3.640 ,,,,,
,2,2,2,-45,0.80 ,1,1,1,3.830 ,,,,,
,2,2,3,30,1.20 ,2,-1,0,3.790 ,,,,,
,2,2,4,-15,1.20 ,1,1,0,4.200 ,,,,,
,2,2,5,-30,1.20 ,1,1,1,3.650 ,,,,,
,2,2,6,15,0.80 ,1,1,0,3.700 ,,,,,
,2,2,7,-45,1.00 ,2,-1,1,3.670 ,,,,,
,2,2,8,-45,1.00 ,1,1,1,3.880 ,,,,,
,2,2,9,15,1.20 ,2,-1,0,3.980 ,,,,,
,2,2,10,0,1.20 ,1,1,0,3.670 ,,,,,
,2,2,11,0,1.20 ,2,-1,0,3.650 ,,,,,
,2,2,12,-45,0.80 ,2,-1,1,3.680 ,,,,,
,2,2,13,-15,0.80 ,1,1,0,4.220 ,,,,,
,2,2,14,-30,0.80 ,1,1,1,3.660 ,,,,,
,2,2,15,0,0.80 ,2,-1,0,3.600 ,,,,,
,2,2,16,-30,1.00 ,2,-1,0,5.390 ,,,,,
,2,2,17,0,1.00 ,2,-1,0,3.590 ,,,,,
,2,2,18,45,1.20 ,2,-1,0,4.350 ,,,,,
,2,2,19,45,0.80 ,2,-1,0,4.010 ,,,,,
,2,2,20,-30,1.20 ,2,-1,1,3.770 ,,,,,
,2,2,21,15,1.00 ,1,1,0,3.700 ,,,,,
,2,2,22,0,1.00 ,1,1,0,3.710 ,,,,,
,2,2,23,-15,1.00 ,2,-1,0,5.310 ,,,,,
,2,2,24,15,1.00 ,2,-1,1,5.820 ,,,,,
,2,2,25,15,1.20 ,1,1,0,3.700 ,,,,,
,2,2,26,45,1.00 ,2,-1,0,3.660 ,,,,,
,2,2,27,30,1.20 ,1,1,0,3.580 ,,,,,
,2,2,28,15,0.80 ,2,-1,0,3.620 ,,,,,
,2,2,29,-45,1.20 ,2,-1,1,3.700 ,,,,,
,2,2,30,30,1.00 ,1,1,0,3.680 ,,,,,
,2,2,31,45,1.20 ,1,1,0,3.550 ,,,,,
,2,2,32,-15,0.80 ,2,-1,1,3.610 ,,,,,
,2,2,33,-30,1.00 ,1,1,0,4.180 ,,,,,
,2,2,34,0,0.80 ,1,1,0,3.700 ,,,,,
,2,2,35,30,1.00 ,2,-1,0,3.630 ,,,,,
,2,2,36,-15,1.20 ,2,-1,1,3.660 ,,,,,
,2,2,37,-45,1.20 ,1,1,1,3.610 ,,,,,
,2,2,38,30,0.80 ,2,-1,0,3.670 ,,,,,
,2,2,39,-15,1.00 ,1,1,0,4.680 ,,,,,
,2,2,40,45,0.80 ,1,1,0,3.650 ,,,,,
,2,2,41,-30,0.80 ,2,-1,1,3.860 ,,,,,
,2,2,42,45,1.00 ,1,1,0,3.640 ,,,,,
,2,3,1,-15,0.80 ,2,-1,1,3.600 ,,,,,
,2,3,2,15,0.80 ,2,-1,0,3.620 ,,,,,
,2,3,3,45,0.80 ,1,1,0,3.590 ,,,,,
,2,3,4,-30,1.20 ,2,-1,1,3.650 ,,,,,
,2,3,5,30,1.20 ,2,-1,0,3.600 ,,,,,
,2,3,6,-30,1.20 ,1,1,0,3.700 ,,,,,
,2,3,7,-30,0.80 ,2,-1,0,5.370 ,,,,,
,2,3,8,0,1.00 ,1,1,0,3.580 ,,,,,
,2,3,9,0,0.80 ,2,-1,0,3.580 ,,,,,
,2,3,10,15,1.00 ,1,1,0,3.590 ,,,,,
,2,3,11,-15,1.20 ,1,1,0,3.930 ,,,,,
,2,3,12,15,0.80 ,1,1,0,3.590 ,,,,,
,2,3,13,0,1.00 ,2,-1,0,3.630 ,,,,,
,2,3,14,-45,1.20 ,1,1,1,3.760 ,,,,,
,2,3,15,15,1.20 ,1,1,0,3.600 ,,,,,
,2,3,16,30,1.00 ,1,1,0,3.540 ,,,,,
,2,3,17,-45,0.80 ,1,1,0,3.740 ,,,,,
,2,3,18,0,0.80 ,1,1,0,3.600 ,,,,,
,2,3,19,-45,1.00 ,2,-1,1,3.640 ,,,,,
,2,3,20,15,1.20 ,2,-1,1,3.670 ,,,,,
,2,3,21,30,1.00 ,2,-1,1,5.350 ,,,,,
,2,3,22,-30,1.00 ,1,1,0,3.720 ,,,,,
,2,3,23,-15,1.00 ,1,1,0,3.650 ,,,,,
,2,3,24,0,1.20 ,2,-1,0,3.550 ,,,,,
,2,3,25,-45,1.00 ,1,1,0,4.580 ,,,,,
,2,3,26,-45,1.20 ,2,-1,1,3.680 ,,,,,
,2,3,27,-15,0.80 ,1,1,0,3.600 ,,,,,
,2,3,28,-15,1.00 ,2,-1,1,3.610 ,,,,,
,2,3,29,45,1.20 ,2,-1,0,4.330 ,,,,,
,2,3,30,30,1.20 ,1,1,0,3.610 ,,,,,
,2,3,31,-30,1.00 ,2,-1,1,3.640 ,,,,,
,2,3,32,45,0.80 ,2,-1,0,3.920 ,,,,,
,2,3,33,45,1.00 ,1,1,0,3.580 ,,,,,
,2,3,34,-15,1.20 ,2,-1,1,3.810 ,,,,,
,2,3,35,30,0.80 ,1,1,0,3.610 ,,,,,
,2,3,36,45,1.00 ,2,-1,0,3.520 ,,,,,
,2,3,37,30,0.80 ,2,-1,0,3.580 ,,,,,
,2,3,38,15,1.00 ,2,-1,1,3.820 ,,,,,
,2,3,39,0,1.20 ,1,1,0,3.570 ,,,,,
,2,3,40,45,1.20 ,1,1,0,3.640 ,,,,,
,2,3,41,-45,0.80 ,2,-1,1,3.640 ,,,,,
,2,3,42,-30,0.80 ,1,1,0,3.840 ,,,,,
,3,1,1,-45,1.00 ,2,-1,1,4.670 ,,,,,
,3,1,2,-15,1.20 ,2,-1,0,4.680 ,,,,,
,3,1,3,0,1.20 ,2,-1,0,4.090 ,,,,,
,3,1,4,0,1.00 ,1,1,0,4.190 ,,,,,
,3,1,5,30,1.00 ,1,1,0,4.400 ,,,,,
,3,1,6,15,0.80 ,1,1,0,4.010 ,,,,,
,3,1,7,-15,1.20 ,1,1,0,3.790 ,,,,,
,3,1,8,-45,1.20 ,1,1,0,3.780 ,,,,,
,3,1,9,0,0.80 ,2,-1,1,6.630 ,,,,,
,3,1,10,-15,0.80 ,2,-1,0,4.130 ,,,,,
,3,1,11,30,1.20 ,1,1,0,6.220 ,,,,,
,3,1,12,30,1.00 ,2,-1,1,5.530 ,,,,,
,3,1,13,-15,1.00 ,1,1,1,5.140 ,,,,,
,3,1,14,-45,0.80 ,2,-1,1,8.630 ,,,,,
,3,1,15,-45,1.20 ,2,-1,1,4.640 ,,,,,
,3,1,16,45,0.80 ,1,1,0,4.270 ,,,,,
,3,1,17,-45,1.00 ,1,1,1,5.430 ,,,,,
,3,1,18,15,0.80 ,2,-1,1,4.230 ,,,,,
,3,1,19,30,1.20 ,2,-1,1,4.570 ,,,,,
,3,1,20,-15,1.00 ,2,-1,1,9.120 ,,,,,
,3,1,21,-30,1.00 ,2,-1,1,7.040 ,,,,,
,3,1,22,15,1.20 ,2,-1,1,6.740 ,,,,,
,3,1,23,-30,1.00 ,1,1,0,4.420 ,,,,,
,3,1,24,-30,1.20 ,1,1,0,4.190 ,,,,,
,3,1,25,0,0.80 ,1,1,0,4.610 ,,,,,
,3,1,26,45,1.00 ,1,1,0,4.290 ,,,,,
,3,1,27,-30,1.20 ,2,-1,0,4.550 ,,,,,
,3,1,28,-30,0.80 ,1,1,0,4.170 ,,,,,
,3,1,29,0,1.00 ,2,-1,0,4.300 ,,,,,
,3,1,30,45,0.80 ,2,-1,0,4.490 ,,,,,
,3,1,31,-15,0.80 ,1,1,0,4.120 ,,,,,
,3,1,32,45,1.20 ,2,-1,0,5.130 ,,,,,
,3,1,33,45,1.20 ,1,1,0,4.900 ,,,,,
,3,1,34,30,0.80 ,2,-1,0,3.930 ,,,,,
,3,1,35,-45,0.80 ,1,1,0,4.050 ,,,,,
,3,1,36,15,1.20 ,1,1,0,4.380 ,,,,,
,3,1,37,45,1.00 ,2,-1,0,3.940 ,,,,,
,3,1,38,15,1.00 ,1,1,0,3.370 ,,,,,
,3,1,39,0,1.20 ,1,1,0,4.180 ,,,,,
,3,1,40,-30,0.80 ,2,-1,0,4.520 ,,,,,
,3,1,41,30,0.80 ,1,1,0,4.140 ,,,,,
,3,1,42,15,1.00 ,2,-1,0,3.900 ,,,,,
,3,2,1,-15,0.80 ,2,-1,0,4.320 ,,,,,
,3,2,2,15,1.00 ,1,1,0,4.010 ,,,,,
,3,2,3,45,1.20 ,2,-1,0,4.020 ,,,,,
,3,2,4,-45,0.80 ,2,-1,0,3.970 ,,,,,
,3,2,5,0,1.20 ,1,1,0,3.980 ,,,,,
,3,2,6,-30,1.20 ,1,1,0,4.170 ,,,,,
,3,2,7,-45,1.00 ,2,-1,1,4.320 ,,,,,
,3,2,8,-15,1.00 ,1,1,1,4.030 ,,,,,
,3,2,9,-30,1.20 ,2,-1,1,4.050 ,,,,,
,3,2,10,30,1.20 ,1,1,1,3.850 ,,,,,
,3,2,11,0,1.00 ,1,1,1,3.930 ,,,,,
,3,2,12,-30,1.00 ,1,1,1,3.790 ,,,,,
,3,2,13,15,0.80 ,2,-1,1,3.930 ,,,,,
,3,2,14,15,0.80 ,1,1,1,3.850 ,,,,,
,3,2,15,-15,1.00 ,2,-1,1,3.860 ,,,,,
,3,2,16,-30,0.80 ,2,-1,1,3.810 ,,,,,
,3,2,17,30,1.00 ,2,-1,1,4.830 ,,,,,
,3,2,18,45,0.80 ,1,1,0,4.470 ,,,,,
,3,2,19,0,1.00 ,2,-1,0,3.790 ,,,,,
,3,2,20,0,0.80 ,2,-1,0,4.000 ,,,,,
,3,2,21,-15,1.20 ,2,-1,1,3.850 ,,,,,
,3,2,22,-45,0.80 ,1,1,1,3.860 ,,,,,
,3,2,23,45,1.00 ,2,-1,0,3.760 ,,,,,
,3,2,24,-30,0.80 ,1,1,0,3.790 ,,,,,
,3,2,25,-15,1.20 ,1,1,0,4.080 ,,,,,
,3,2,26,0,1.20 ,2,-1,0,4.630 ,,,,,
,3,2,27,-45,1.20 ,1,1,0,3.780 ,,,,,
,3,2,28,30,1.00 ,1,1,0,3.940 ,,,,,
,3,2,29,30,0.80 ,1,1,0,3.720 ,,,,,
,3,2,30,15,1.20 ,2,-1,0,3.780 ,,,,,
,3,2,31,-15,0.80 ,1,1,0,3.710 ,,,,,
,3,2,32,30,1.20 ,2,-1,0,3.660 ,,,,,
,3,2,33,0,0.80 ,1,1,0,3.690 ,,,,,
,3,2,34,-30,1.00 ,2,-1,0,3.660 ,,,,,
,3,2,35,-45,1.20 ,2,-1,0,3.640 ,,,,,
,3,2,36,15,1.00 ,2,-1,0,3.830 ,,,,,
,3,2,37,45,0.80 ,2,-1,0,3.930 ,,,,,
,3,2,38,45,1.20 ,1,1,0,4.650 ,,,,,
,3,2,39,15,1.20 ,1,1,0,3.760 ,,,,,
,3,2,40,-45,1.00 ,1,1,0,3.410 ,,,,,
,3,2,41,45,1.00 ,1,1,0,3.650 ,,,,,
,3,2,42,30,0.80 ,2,-1,0,4.660 ,,,,,
,3,3,1,-15,1.20 ,2,-1,0,4.230 ,,,,,
,3,3,2,-30,1.00 ,1,1,0,3.740 ,,,,,
,3,3,3,45,0.80 ,2,-1,1,3.870 ,,,,,
,3,3,4,-45,0.80 ,2,-1,1,3.730 ,,,,,
,3,3,5,0,1.20 ,1,1,1,3.980 ,,,,,
,3,3,6,-30,1.20 ,1,1,1,3.720 ,,,,,
,3,3,7,0,1.00 ,1,1,0,3.730 ,,,,,
,3,3,8,-30,1.20 ,2,-1,1,3.740 ,,,,,
,3,3,9,30,1.00 ,1,1,1,3.900 ,,,,,
,3,3,10,-45,1.20 ,2,-1,0,3.760 ,,,,,
,3,3,11,15,1.00 ,1,1,0,3.630 ,,,,,
,3,3,12,0,1.20 ,2,-1,0,3.700 ,,,,,
,3,3,13,30,1.20 ,1,1,0,3.800 ,,,,,
,3,3,14,-15,1.00 ,1,1,0,3.650 ,,,,,
,3,3,15,30,0.80 ,1,1,0,3.620 ,,,,,
,3,3,16,-15,1.20 ,1,1,1,3.690 ,,,,,
,3,3,17,45,1.20 ,2,-1,1,3.870 ,,,,,
,3,3,18,15,0.80 ,1,1,1,3.700 ,,,,,
,3,3,19,-15,0.80 ,1,1,1,3.760 ,,,,,
,3,3,20,30,1.00 ,2,-1,1,3.650 ,,,,,
,3,3,21,-30,1.00 ,2,-1,1,3.730 ,,,,,
,3,3,22,45,1.00 ,2,-1,1,3.620 ,,,,,
,3,3,23,45,1.20 ,1,1,1,3.670 ,,,,,
,3,3,24,15,1.20 ,1,1,0,3.620 ,,,,,
,3,3,25,15,1.00 ,2,-1,0,3.650 ,,,,,
,3,3,26,-45,1.00 ,2,-1,0,3.730 ,,,,,
,3,3,27,-30,0.80 ,2,-1,1,3.700 ,,,,,
,3,3,28,-45,1.00 ,1,1,1,3.660 ,,,,,
,3,3,29,0,0.80 ,1,1,1,3.680 ,,,,,
,3,3,30,-15,0.80 ,2,-1,1,5.080 ,,,,,
,3,3,31,-45,1.20 ,1,1,1,3.910 ,,,,,
,3,3,32,45,0.80 ,1,1,1,3.590 ,,,,,
,3,3,33,30,1.20 ,2,-1,0,3.630 ,,,,,
,3,3,34,15,0.80 ,2,-1,0,3.380 ,,,,,
,3,3,35,-45,0.80 ,1,1,0,3.700 ,,,,,
,3,3,36,0,1.00 ,2,-1,0,4.310 ,,,,,
,3,3,37,45,1.00 ,1,1,1,4.190 ,,,,,
,3,3,38,15,1.20 ,2,-1,0,3.640 ,,,,,
,3,3,39,-15,1.00 ,2,-1,0,3.630 ,,,,,
,3,3,40,30,0.80 ,2,-1,0,3.620 ,,,,,
,3,3,41,0,0.80 ,2,-1,0,3.720 ,,,,,
,3,3,42,-30,0.80 ,1,1,0,3.660 ,,,,,
,4,1,1,0,1.00 ,2,-1,1,4.610 ,,,,,
,4,1,2,-30,1.00 ,1,1,0,4.080 ,,,,,
,4,1,3,30,0.80 ,2,-1,1,5.150 ,,,,,
,4,1,4,-15,0.80 ,1,1,0,4.220 ,,,,,
,4,1,5,-45,0.80 ,1,1,0,4.000 ,,,,,
,4,1,6,15,0.80 ,2,-1,1,3.990 ,,,,,
,4,1,7,15,1.00 ,1,1,1,4.510 ,,,,,
,4,1,8,0,1.20 ,1,1,0,4.100 ,,,,,
,4,1,9,30,1.00 ,2,-1,1,4.710 ,,,,,
,4,1,10,-30,0.80 ,1,1,0,6.680 ,,,,,
,4,1,11,-15,1.20 ,1,1,0,4.630 ,,,,,
,4,1,12,0,0.80 ,1,1,0,4.300 ,,,,,
,4,1,13,0,1.00 ,1,1,0,3.940 ,,,,,
,4,1,14,-15,1.20 ,2,-1,1,4.150 ,,,,,
,4,1,15,-45,0.80 ,2,-1,1,3.810 ,,,,,
,4,1,16,45,0.80 ,1,1,0,3.900 ,,,,,
,4,1,17,45,1.00 ,2,-1,0,5.900 ,,,,,
,4,1,18,-45,1.20 ,2,-1,0,3.940 ,,,,,
,4,1,19,15,1.00 ,2,-1,1,3.990 ,,,,,
,4,1,20,-45,1.00 ,1,1,0,5.370 ,,,,,
,4,1,21,45,1.00 ,1,1,0,5.220 ,,,,,
,4,1,22,30,1.00 ,1,1,0,3.820 ,,,,,
,4,1,23,0,0.80 ,2,-1,1,4.500 ,,,,,
,4,1,24,45,1.20 ,1,1,0,4.470 ,,,,,
,4,1,25,-30,1.20 ,2,-1,1,3.750 ,,,,,
,4,1,26,15,0.80 ,1,1,0,3.710 ,,,,,
,4,1,27,30,0.80 ,1,1,0,3.720 ,,,,,
,4,1,28,-15,0.80 ,2,-1,1,3.860 ,,,,,
,4,1,29,-15,1.00 ,1,1,1,3.910 ,,,,,
,4,1,30,45,1.20 ,2,-1,0,4.060 ,,,,,
,4,1,31,-15,1.00 ,2,-1,1,4.010 ,,,,,
,4,1,32,-30,1.20 ,1,1,1,4.360 ,,,,,
,4,1,33,-30,0.80 ,2,-1,1,4.240 ,,,,,
,4,1,34,-45,1.20 ,1,1,1,4.070 ,,,,,
,4,1,35,0,1.20 ,2,-1,0,3.660 ,,,,,
,4,1,36,-30,1.00 ,2,-1,1,3.710 ,,,,,
,4,1,37,15,1.20 ,2,-1,0,3.740 ,,,,,
,4,1,38,30,1.20 ,2,-1,0,4.700 ,,,,,
,4,1,39,-45,1.00 ,2,-1,1,3.410 ,,,,,
,4,1,40,15,1.20 ,1,1,0,3.450 ,,,,,
,4,1,41,45,0.80 ,2,-1,0,3.750 ,,,,,
,4,1,42,30,1.20 ,1,1,0,3.500 ,,,,,
,4,2,1,-30,1.20 ,1,1,1,3.790 ,,,,,
,4,2,2,45,1.20 ,2,-1,0,3.400 ,,,,,
,4,2,3,30,1.00 ,2,-1,0,3.620 ,,,,,
,4,2,4,30,1.20 ,1,1,0,3.870 ,,,,,
,4,2,5,-15,0.80 ,2,-1,1,3.740 ,,,,,
,4,2,6,0,1.20 ,2,-1,1,3.640 ,,,,,
,4,2,7,15,0.80 ,2,-1,0,3.640 ,,,,,
,4,2,8,30,1.20 ,2,-1,0,4.080 ,,,,,
,4,2,9,-45,1.20 ,2,-1,1,3.720 ,,,,,
,4,2,10,-30,1.20 ,2,-1,1,3.680 ,,,,,
,4,2,11,0,0.80 ,1,1,0,3.380 ,,,,,
,4,2,12,15,1.00 ,1,1,0,3.480 ,,,,,
,4,2,13,30,1.00 ,1,1,0,3.600 ,,,,,
,4,2,14,-45,1.20 ,1,1,1,3.390 ,,,,,
,4,2,15,0,1.00 ,1,1,0,3.910 ,,,,,
,4,2,16,15,0.80 ,1,1,0,3.470 ,,,,,
,4,2,17,-15,1.00 ,1,1,1,3.460 ,,,,,
,4,2,18,0,1.00 ,2,-1,1,3.370 ,,,,,
,4,2,19,45,0.80 ,2,-1,0,3.660 ,,,,,
,4,2,20,45,1.20 ,1,1,0,3.670 ,,,,,
,4,2,21,-30,1.00 ,2,-1,1,3.750 ,,,,,
,4,2,22,15,1.20 ,1,1,0,3.690 ,,,,,
,4,2,23,-15,1.20 ,1,1,1,3.500 ,,,,,
,4,2,24,0,1.20 ,1,1,0,3.440 ,,,,,
,4,2,25,-30,1.00 ,1,1,1,3.630 ,,,,,
,4,2,26,-15,1.00 ,2,-1,1,4.120 ,,,,,
,4,2,27,15,1.20 ,2,-1,0,3.680 ,,,,,
,4,2,28,30,0.80 ,2,-1,0,4.060 ,,,,,
,4,2,29,45,0.80 ,1,1,0,4.960 ,,,,,
,4,2,30,-30,0.80 ,1,1,1,3.840 ,,,,,
,4,2,31,45,1.00 ,1,1,0,3.880 ,,,,,
,4,2,32,0,0.80 ,2,-1,0,6.890 ,,,,,
,4,2,33,-45,0.80 ,2,-1,1,3.910 ,,,,,
,4,2,34,-45,1.00 ,1,1,1,3.670 ,,,,,
,4,2,35,15,1.00 ,2,-1,0,3.670 ,,,,,
,4,2,36,-15,0.80 ,1,1,1,3.710 ,,,,,
,4,2,37,-45,0.80 ,1,1,1,3.770 ,,,,,
,4,2,38,30,0.80 ,1,1,0,3.780 ,,,,,
,4,2,39,-30,0.80 ,2,-1,1,3.680 ,,,,,
,4,2,40,-15,1.20 ,2,-1,1,3.740 ,,,,,
,4,2,41,45,1.00 ,2,-1,0,3.670 ,,,,,
,4,2,42,-45,1.00 ,2,-1,1,3.690 ,,,,,
,4,3,1,15,0.80 ,1,1,0,3.880 ,,,,,
,4,3,2,45,1.20 ,2,-1,0,3.510 ,,,,,
,4,3,3,-15,1.00 ,1,1,0,3.840 ,,,,,
,4,3,4,-15,1.20 ,2,-1,1,4.150 ,,,,,
,4,3,5,30,0.80 ,2,-1,1,3.750 ,,,,,
,4,3,6,45,1.00 ,2,-1,1,4.300 ,,,,,
,4,3,7,15,0.80 ,2,-1,1,3.970 ,,,,,
,4,3,8,-45,1.00 ,2,-1,1,4.260 ,,,,,
,4,3,9,0,1.20 ,2,-1,1,4.050 ,,,,,
,4,3,10,-45,0.80 ,2,-1,1,3.690 ,,,,,
,4,3,11,0,0.80 ,1,1,0,4.280 ,,,,,
,4,3,12,-45,1.00 ,1,1,1,4.070 ,,,,,
,4,3,13,0,1.20 ,1,1,0,6.490 ,,,,,
,4,3,14,-45,1.20 ,1,1,1,3.910 ,,,,,
,4,3,15,-30,1.20 ,1,1,1,3.880 ,,,,,
,4,3,16,-30,0.80 ,1,1,0,4.850 ,,,,,
,4,3,17,30,1.00 ,1,1,0,4.130 ,,,,,
,4,3,18,15,1.20 ,2,-1,0,4.690 ,,,,,
,4,3,19,-15,0.80 ,1,1,0,4.360 ,,,,,
,4,3,20,30,1.00 ,2,-1,1,4.070 ,,,,,
,4,3,21,45,1.20 ,1,1,1,3.890 ,,,,,
,4,3,22,-30,1.20 ,2,-1,1,5.630 ,,,,,
,4,3,23,15,1.00 ,2,-1,1,4.140 ,,,,,
,4,3,24,-15,1.00 ,2,-1,1,3.770 ,,,,,
,4,3,25,45,0.80 ,2,-1,1,3.630 ,,,,,
,4,3,26,45,1.00 ,1,1,0,3.760 ,,,,,
,4,3,27,-15,0.80 ,2,-1,0,7.240 ,,,,,
,4,3,28,0,1.00 ,2,-1,1,3.800 ,,,,,
,4,3,29,-30,1.00 ,1,1,1,3.860 ,,,,,
,4,3,30,15,1.20 ,1,1,0,4.020 ,,,,,
,4,3,31,-30,1.00 ,2,-1,1,3.640 ,,,,,
,4,3,32,-30,0.80 ,2,-1,1,3.890 ,,,,,
,4,3,33,0,0.80 ,2,-1,0,4.140 ,,,,,
,4,3,34,0,1.00 ,1,1,0,3.760 ,,,,,
,4,3,35,30,1.20 ,1,1,0,3.610 ,,,,,
,4,3,36,30,1.20 ,2,-1,1,4.290 ,,,,,
,4,3,37,45,0.80 ,1,1,0,3.610 ,,,,,
,4,3,38,-15,1.20 ,1,1,0,3.910 ,,,,,
,4,3,39,30,0.80 ,1,1,0,4.450 ,,,,,
,4,3,40,15,1.00 ,1,1,0,4.250 ,,,,,
,4,3,41,-45,0.80 ,1,1,0,4.280 ,,,,,
,4,3,42,-45,1.20 ,2,-1,1,4.020 ,,,,,
,5,1,1,-15,1.20 ,1,1,1,4.190 ,,,,,
,5,1,2,30,0.80 ,1,1,1,3.690 ,,,,,
,5,1,3,15,0.80 ,1,1,1,3.680 ,,,,,
,5,1,4,45,0.80 ,2,-1,0,3.730 ,,,,,
,5,1,5,-45,0.80 ,1,1,1,3.660 ,,,,,
,5,1,6,0,1.20 ,2,-1,0,3.750 ,,,,,
,5,1,7,45,1.00 ,2,-1,0,3.760 ,,,,,
,5,1,8,-30,0.80 ,1,1,1,3.590 ,,,,,
,5,1,9,-15,0.80 ,1,1,1,3.580 ,,,,,
,5,1,10,-45,0.80 ,2,-1,0,3.870 ,,,,,
,5,1,11,15,0.80 ,2,-1,0,4.520 ,,,,,
,5,1,12,15,1.20 ,2,-1,0,3.620 ,,,,,
,5,1,13,0,1.00 ,2,-1,0,3.660 ,,,,,
,5,1,14,-15,1.20 ,2,-1,0,3.710 ,,,,,
,5,1,15,0,0.80 ,2,-1,0,3.630 ,,,,,
,5,1,16,-30,1.00 ,2,-1,0,3.600 ,,,,,
,5,1,17,45,1.00 ,1,1,1,3.620 ,,,,,
,5,1,18,30,1.00 ,2,-1,0,5.460 ,,,,,
,5,1,19,30,1.00 ,1,1,1,3.590 ,,,,,
,5,1,20,45,1.20 ,1,1,1,3.630 ,,,,,
,5,1,21,-45,1.00 ,1,1,1,3.600 ,,,,,
,5,1,22,-15,1.00 ,1,1,1,3.570 ,,,,,
,5,1,23,15,1.00 ,2,-1,0,3.660 ,,,,,
,5,1,24,-15,1.00 ,2,-1,0,4.730 ,,,,,
,5,1,25,30,1.20 ,1,1,1,3.600 ,,,,,
,5,1,26,0,1.20 ,1,1,1,3.530 ,,,,,
,5,1,27,30,0.80 ,2,-1,0,3.620 ,,,,,
,5,1,28,15,1.00 ,1,1,1,3.630 ,,,,,
,5,1,29,-30,1.00 ,1,1,1,3.480 ,,,,,
,5,1,30,45,1.20 ,2,-1,0,3.630 ,,,,,
,5,1,31,-15,0.80 ,2,-1,0,4.450 ,,,,,
,5,1,32,-45,1.00 ,2,-1,0,3.620 ,,,,,
,5,1,33,-30,1.20 ,2,-1,0,6.840 ,,,,,
,5,1,34,0,1.00 ,1,1,1,3.600 ,,,,,
,5,1,35,15,1.20 ,1,1,1,3.530 ,,,,,
,5,1,36,-45,1.20 ,1,1,1,3.980 ,,,,,
,5,1,37,30,1.20 ,2,-1,0,3.680 ,,,,,
,5,1,38,-45,1.20 ,2,-1,1,3.610 ,,,,,
,5,1,39,0,0.80 ,1,1,1,3.640 ,,,,,
,5,1,40,-30,0.80 ,2,-1,0,3.840 ,,,,,
,5,1,41,-30,1.20 ,1,1,1,3.670 ,,,,,
,5,1,42,45,0.80 ,1,1,1,4.220 ,,,,,
,5,2,1,0,0.80 ,1,1,0,7.920 ,,,,,
,5,2,2,0,0.80 ,2,-1,0,5.490 ,,,,,
,5,2,3,-30,0.80 ,1,1,1,5.680 ,,,,,
,5,2,4,45,1.00 ,2,-1,0,3.880 ,,,,,
,5,2,5,15,1.20 ,1,1,1,3.580 ,,,,,
,5,2,6,15,1.00 ,1,1,1,8.550 ,,,,,
,5,2,7,30,1.20 ,2,-1,0,3.670 ,,,,,
,5,2,8,15,1.20 ,2,-1,0,3.880 ,,,,,
,5,2,9,-15,0.80 ,2,-1,0,3.660 ,,,,,
,5,2,10,45,1.00 ,1,1,1,5.250 ,,,,,
,5,2,11,-45,1.00 ,1,1,1,4.840 ,,,,,
,5,2,12,-30,1.00 ,1,1,1,3.570 ,,,,,
,5,2,13,15,1.00 ,2,-1,0,3.650 ,,,,,
,5,2,14,30,0.80 ,1,1,1,4.200 ,,,,,
,5,2,15,30,1.00 ,1,1,1,3.610 ,,,,,
,5,2,16,-30,1.00 ,2,-1,0,3.650 ,,,,,
,5,2,17,-45,0.80 ,1,1,1,3.630 ,,,,,
,5,2,18,-45,1.20 ,1,1,1,3.860 ,,,,,
,5,2,19,30,0.80 ,2,-1,0,3.670 ,,,,,
,5,2,20,-15,1.20 ,2,-1,1,3.670 ,,,,,
,5,2,21,45,1.20 ,1,1,0,4.900 ,,,,,
,5,2,22,-15,0.80 ,1,1,1,3.920 ,,,,,
,5,2,23,-30,1.20 ,2,-1,0,4.720 ,,,,,
,5,2,24,0,1.20 ,2,-1,0,3.670 ,,,,,
,5,2,25,0,1.00 ,2,-1,0,3.630 ,,,,,
,5,2,26,-15,1.00 ,1,1,1,3.630 ,,,,,
,5,2,27,-15,1.00 ,2,-1,0,3.690 ,,,,,
,5,2,28,30,1.20 ,1,1,0,7.390 ,,,,,
,5,2,29,0,1.20 ,1,1,1,3.680 ,,,,,
,5,2,30,45,0.80 ,2,-1,0,4.210 ,,,,,
,5,2,31,15,0.80 ,1,1,0,5.910 ,,,,,
,5,2,32,-30,0.80 ,2,-1,0,3.590 ,,,,,
,5,2,33,-45,0.80 ,2,-1,0,3.590 ,,,,,
,5,2,34,30,1.00 ,2,-1,0,3.360 ,,,,,
,5,2,35,-30,1.20 ,1,1,1,3.640 ,,,,,
,5,2,36,-45,1.00 ,2,-1,0,3.570 ,,,,,
,5,2,37,45,0.80 ,1,1,0,3.830 ,,,,,
,5,2,38,45,1.20 ,2,-1,0,4.230 ,,,,,
,5,2,39,-15,1.20 ,1,1,1,3.640 ,,,,,
,5,2,40,15,0.80 ,2,-1,0,3.610 ,,,,,
,5,2,41,-45,1.20 ,2,-1,1,3.540 ,,,,,
,5,2,42,0,1.00 ,1,1,1,3.610 ,,,,,
,5,3,1,-15,1.00 ,1,1,1,5.560 ,,,,,
,5,3,2,-15,1.20 ,2,-1,0,3.920 ,,,,,
,5,3,3,0,0.80 ,1,1,1,3.570 ,,,,,
,5,3,4,-15,1.20 ,1,1,0,3.670 ,,,,,
,5,3,5,30,1.00 ,2,-1,0,3.700 ,,,,,
,5,3,6,-15,0.80 ,1,1,1,3.660 ,,,,,
,5,3,7,15,0.80 ,2,-1,0,3.640 ,,,,,
,5,3,8,45,1.00 ,1,1,0,7.280 ,,,,,
,5,3,9,30,0.80 ,1,1,1,3.760 ,,,,,
,5,3,10,-15,0.80 ,2,-1,0,3.970 ,,,,,
,5,3,11,30,1.20 ,2,-1,0,4.910 ,,,,,
,5,3,12,-30,1.20 ,2,-1,0,3.710 ,,,,,
,5,3,13,45,1.20 ,1,1,1,3.680 ,,,,,
,5,3,14,0,1.20 ,2,-1,0,3.620 ,,,,,
,5,3,15,45,0.80 ,1,1,1,5.140 ,,,,,
,5,3,16,-30,0.80 ,1,1,1,3.610 ,,,,,
,5,3,17,15,1.20 ,2,-1,0,3.960 ,,,,,
,5,3,18,15,0.80 ,1,1,1,3.670 ,,,,,
,5,3,19,-45,0.80 ,1,1,1,4.680 ,,,,,
,5,3,20,-45,0.80 ,2,-1,0,3.640 ,,,,,
,5,3,21,-45,1.00 ,2,-1,1,3.610 ,,,,,
,5,3,22,0,0.80 ,2,-1,0,3.610 ,,,,,
,5,3,23,30,0.80 ,2,-1,0,3.620 ,,,,,
,5,3,24,45,1.20 ,2,-1,0,3.600 ,,,,,
,5,3,25,0,1.00 ,2,-1,0,3.580 ,,,,,
,5,3,26,15,1.20 ,1,1,1,3.650 ,,,,,
,5,3,27,45,0.80 ,2,-1,0,3.650 ,,,,,
,5,3,28,0,1.20 ,1,1,1,3.630 ,,,,,
,5,3,29,-45,1.20 ,1,1,1,3.610 ,,,,,
,5,3,30,15,1.00 ,2,-1,0,3.610 ,,,,,
,5,3,31,-30,1.00 ,1,1,1,3.970 ,,,,,
,5,3,32,-30,1.00 ,2,-1,0,3.610 ,,,,,
,5,3,33,-30,1.20 ,1,1,1,3.590 ,,,,,
,5,3,34,45,1.00 ,2,-1,0,3.590 ,,,,,
,5,3,35,30,1.00 ,1,1,1,3.630 ,,,,,
,5,3,36,-45,1.00 ,1,1,1,3.650 ,,,,,
,5,3,37,-30,0.80 ,2,-1,0,3.600 ,,,,,
,5,3,38,-15,1.00 ,2,-1,0,3.610 ,,,,,
,5,3,39,15,1.00 ,1,1,1,3.930 ,,,,,
,5,3,40,-45,1.20 ,2,-1,1,3.440 ,,,,,
,5,3,41,30,1.20 ,1,1,1,3.580 ,,,,,
,5,3,42,0,1.00 ,1,1,1,4.390 ,,,,,
,6,1,1,-15,0.80 ,1,1,1,3.970 ,,,,,
,6,1,2,-15,1.20 ,2,-1,1,4.310 ,,,,,
,6,1,3,0,0.80 ,1,1,1,3.610 ,,,,,
,6,1,4,30,1.20 ,1,1,1,4.260 ,,,,,
,6,1,5,-15,0.80 ,2,-1,1,3.960 ,,,,,
,6,1,6,30,1.00 ,1,1,0,3.650 ,,,,,
,6,1,7,0,1.20 ,2,-1,0,3.680 ,,,,,
,6,1,8,30,0.80 ,2,-1,0,3.740 ,,,,,
,6,1,9,45,1.20 ,1,1,1,3.700 ,,,,,
,6,1,10,-30,1.20 ,2,-1,1,3.700 ,,,,,
,6,1,11,45,1.00 ,2,-1,1,4.030 ,,,,,
,6,1,12,-45,0.80 ,1,1,1,3.970 ,,,,,
,6,1,13,15,0.80 ,2,-1,0,3.600 ,,,,,
,6,1,14,-45,1.00 ,1,1,1,3.540 ,,,,,
,6,1,15,30,1.00 ,2,-1,1,3.620 ,,,,,
,6,1,16,-15,1.00 ,2,-1,1,3.600 ,,,,,
,6,1,17,30,1.20 ,2,-1,0,3.740 ,,,,,
,6,1,18,45,0.80 ,2,-1,0,3.610 ,,,,,
,6,1,19,-30,1.20 ,1,1,1,4.280 ,,,,,
,6,1,20,15,1.00 ,1,1,0,3.650 ,,,,,
,6,1,21,-30,1.00 ,1,1,1,3.620 ,,,,,
,6,1,22,0,1.00 ,2,-1,0,3.620 ,,,,,
,6,1,23,15,1.20 ,2,-1,0,4.150 ,,,,,
,6,1,24,45,0.80 ,1,1,1,3.810 ,,,,,
,6,1,25,15,1.00 ,2,-1,1,3.640 ,,,,,
,6,1,26,0,1.20 ,1,1,0,3.500 ,,,,,
,6,1,27,-30,0.80 ,2,-1,1,3.960 ,,,,,
,6,1,28,45,1.00 ,1,1,1,3.690 ,,,,,
,6,1,29,-30,1.00 ,2,-1,1,3.820 ,,,,,
,6,1,30,-15,1.20 ,1,1,1,3.580 ,,,,,
,6,1,31,-15,1.00 ,1,1,0,3.530 ,,,,,
,6,1,32,-45,1.20 ,1,1,1,3.840 ,,,,,
,6,1,33,15,1.20 ,1,1,1,3.600 ,,,,,
,6,1,34,-45,0.80 ,2,-1,1,3.620 ,,,,,
,6,1,35,0,1.00 ,1,1,1,3.580 ,,,,,
,6,1,36,-45,1.20 ,2,-1,1,3.600 ,,,,,
,6,1,37,-45,1.00 ,2,-1,0,3.900 ,,,,,
,6,1,38,15,0.80 ,1,1,1,3.580 ,,,,,
,6,1,39,0,0.80 ,2,-1,0,3.460 ,,,,,
,6,1,40,45,1.20 ,2,-1,0,3.540 ,,,,,
,6,1,41,-30,0.80 ,1,1,0,3.640 ,,,,,
,6,1,42,30,0.80 ,1,1,0,3.650 ,,,,,
,6,2,1,30,0.80 ,1,1,0,3.590 ,,,,,
,6,2,2,-30,1.00 ,2,-1,1,3.610 ,,,,,
,6,2,3,45,1.20 ,1,1,1,3.560 ,,,,,
,6,2,4,15,0.80 ,2,-1,0,3.600 ,,,,,
,6,2,5,-30,1.20 ,1,1,1,3.540 ,,,,,
,6,2,6,30,1.20 ,2,-1,1,3.440 ,,,,,
,6,2,7,0,0.80 ,2,-1,0,3.480 ,,,,,
,6,2,8,45,1.00 ,1,1,0,3.640 ,,,,,
,6,2,9,-15,1.20 ,2,-1,1,4.030 ,,,,,
,6,2,10,45,1.20 ,2,-1,0,3.470 ,,,,,
,6,2,11,-45,1.00 ,1,1,1,3.480 ,,,,,
,6,2,12,0,1.20 ,1,1,0,4.080 ,,,,,
,6,2,13,30,1.00 ,2,-1,0,3.560 ,,,,,
,6,2,14,0,1.20 ,2,-1,0,3.540 ,,,,,
,6,2,15,30,1.00 ,1,1,1,3.580 ,,,,,
,6,2,16,-45,1.20 ,1,1,1,3.660 ,,,,,
,6,2,17,0,0.80 ,1,1,0,3.700 ,,,,,
,6,2,18,-30,1.00 ,1,1,0,3.640 ,,,,,
,6,2,19,-15,1.00 ,1,1,0,3.700 ,,,,,
,6,2,20,-15,0.80 ,1,1,0,3.380 ,,,,,
,6,2,21,15,0.80 ,1,1,0,3.690 ,,,,,
,6,2,22,-45,0.80 ,2,-1,0,3.510 ,,,,,
,6,2,23,0,1.00 ,1,1,0,3.560 ,,,,,
,6,2,24,30,1.20 ,1,1,0,3.400 ,,,,,
,6,2,25,15,1.00 ,1,1,1,3.490 ,,,,,
,6,2,26,-15,0.80 ,2,-1,1,3.520 ,,,,,
,6,2,27,-15,1.00 ,2,-1,1,3.550 ,,,,,
,6,2,28,-30,0.80 ,2,-1,1,3.580 ,,,,,
,6,2,29,15,1.20 ,2,-1,1,3.680 ,,,,,
,6,2,30,45,0.80 ,2,-1,1,3.410 ,,,,,
,6,2,31,-15,1.20 ,1,1,1,3.500 ,,,,,
,6,2,32,0,1.00 ,2,-1,0,3.440 ,,,,,
,6,2,33,-45,0.80 ,1,1,1,3.510 ,,,,,
,6,2,34,-45,1.00 ,2,-1,1,3.520 ,,,,,
,6,2,35,-45,1.20 ,2,-1,1,3.530 ,,,,,
,6,2,36,-30,1.20 ,2,-1,1,3.430 ,,,,,
,6,2,37,-30,0.80 ,1,1,1,3.380 ,,,,,
,6,2,38,15,1.00 ,2,-1,1,3.460 ,,,,,
,6,2,39,45,0.80 ,1,1,0,3.990 ,,,,,
,6,2,40,15,1.20 ,1,1,0,3.530 ,,,,,
,6,2,41,45,1.00 ,2,-1,0,3.560 ,,,,,
,6,2,42,30,0.80 ,2,-1,0,3.990 ,,,,,
,6,3,1,45,0.80 ,1,1,0,3.490 ,,,,,
,6,3,2,-15,1.20 ,2,-1,0,3.600 ,,,,,
,6,3,3,0,0.80 ,2,-1,0,3.370 ,,,,,
,6,3,4,-15,1.20 ,1,1,0,3.600 ,,,,,
,6,3,5,45,1.20 ,2,-1,0,3.590 ,,,,,
,6,3,6,15,1.00 ,1,1,0,3.440 ,,,,,
,6,3,7,0,1.20 ,1,1,0,3.910 ,,,,,
,6,3,8,30,0.80 ,2,-1,0,3.450 ,,,,,
,6,3,9,-15,0.80 ,2,-1,0,3.670 ,,,,,
,6,3,10,-45,1.20 ,1,1,1,3.490 ,,,,,
,6,3,11,45,1.00 ,2,-1,0,3.530 ,,,,,
,6,3,12,-30,1.00 ,2,-1,1,3.630 ,,,,,
,6,3,13,-15,1.00 ,2,-1,1,3.560 ,,,,,
,6,3,14,-30,0.80 ,1,1,1,3.600 ,,,,,
,6,3,15,-30,0.80 ,2,-1,1,3.500 ,,,,,
,6,3,16,0,1.00 ,2,-1,1,3.540 ,,,,,
,6,3,17,-45,1.00 ,2,-1,1,3.640 ,,,,,
,6,3,18,15,1.00 ,2,-1,1,3.500 ,,,,,
,6,3,19,0,1.00 ,1,1,0,3.610 ,,,,,
,6,3,20,-45,0.80 ,2,-1,1,3.580 ,,,,,
,6,3,21,30,1.20 ,2,-1,0,3.460 ,,,,,
,6,3,22,30,0.80 ,1,1,0,3.550 ,,,,,
,6,3,23,-30,1.20 ,1,1,1,4.370 ,,,,,
,6,3,24,-30,1.00 ,1,1,0,3.540 ,,,,,
,6,3,25,-45,1.00 ,1,1,0,3.520 ,,,,,
,6,3,26,-45,0.80 ,1,1,1,4.360 ,,,,,
,6,3,27,-30,1.20 ,2,-1,1,3.620 ,,,,,
,6,3,28,-15,0.80 ,1,1,0,3.600 ,,,,,
,6,3,29,-45,1.20 ,2,-1,1,3.370 ,,,,,
,6,3,30,0,0.80 ,1,1,0,3.560 ,,,,,
,6,3,31,45,1.00 ,1,1,0,3.550 ,,,,,
,6,3,32,15,0.80 ,2,-1,0,3.570 ,,,,,
,6,3,33,30,1.00 ,1,1,1,3.620 ,,,,,
,6,3,34,15,0.80 ,1,1,0,3.630 ,,,,,
,6,3,35,45,0.80 ,2,-1,0,3.560 ,,,,,
,6,3,36,0,1.20 ,2,-1,0,5.020 ,,,,,
,6,3,37,30,1.00 ,2,-1,0,3.430 ,,,,,
,6,3,38,30,1.20 ,1,1,0,3.510 ,,,,,
,6,3,39,15,1.20 ,2,-1,0,3.540 ,,,,,
,6,3,40,-15,1.00 ,1,1,0,3.470 ,,,,,
,6,3,41,45,1.20 ,1,1,1,3.570 ,,,,,
,6,3,42,15,1.20 ,1,1,1,3.520 ,,,,,
,7,1,1,30,1.00 ,2,-1,0,3.370 ,,,,,
,7,1,2,30,1.20 ,2,-1,0,3.580 ,,,,,
,7,1,3,45,0.80 ,1,1,0,3.890 ,,,,,
,7,1,4,0,1.20 ,2,-1,0,3.500 ,,,,,
,7,1,5,45,1.00 ,2,-1,0,3.680 ,,,,,
,7,1,6,-30,1.00 ,2,-1,0,3.430 ,,,,,
,7,1,7,-15,1.00 ,1,1,0,3.630 ,,,,,
,7,1,8,0,1.20 ,1,1,0,3.440 ,,,,,
,7,1,9,15,1.20 ,1,1,0,3.990 ,,,,,
,7,1,10,-45,0.80 ,2,-1,1,3.670 ,,,,,
,7,1,11,-15,0.80 ,1,1,1,3.670 ,,,,,
,7,1,12,-45,0.80 ,1,1,1,3.540 ,,,,,
,7,1,13,-15,1.20 ,1,1,1,3.620 ,,,,,
,7,1,14,15,1.20 ,2,-1,0,3.450 ,,,,,
,7,1,15,0,1.00 ,1,1,0,3.610 ,,,,,
,7,1,16,-30,0.80 ,2,-1,0,3.780 ,,,,,
,7,1,17,0,0.80 ,1,1,0,3.830 ,,,,,
,7,1,18,30,1.00 ,1,1,0,3.700 ,,,,,
,7,1,19,-15,0.80 ,2,-1,0,3.770 ,,,,,
,7,1,20,-15,1.00 ,2,-1,0,4.070 ,,,,,
,7,1,21,15,0.80 ,1,1,0,3.880 ,,,,,
,7,1,22,-30,1.20 ,2,-1,0,3.900 ,,,,,
,7,1,23,15,0.80 ,2,-1,0,3.630 ,,,,,
,7,1,24,45,0.80 ,2,-1,0,3.560 ,,,,,
,7,1,25,45,1.20 ,1,1,1,3.400 ,,,,,
,7,1,26,-45,1.20 ,1,1,1,3.770 ,,,,,
,7,1,27,0,1.00 ,2,-1,0,3.700 ,,,,,
,7,1,28,-30,0.80 ,1,1,1,4.350 ,,,,,
,7,1,29,15,1.00 ,1,1,1,3.380 ,,,,,
,7,1,30,-15,1.20 ,2,-1,0,3.780 ,,,,,
,7,1,31,-45,1.00 ,2,-1,1,3.820 ,,,,,
,7,1,32,30,1.20 ,1,1,1,3.570 ,,,,,
,7,1,33,45,1.00 ,1,1,1,3.540 ,,,,,
,7,1,34,30,0.80 ,2,-1,0,3.400 ,,,,,
,7,1,35,-30,1.20 ,1,1,1,3.810 ,,,,,
,7,1,36,-30,1.00 ,1,1,1,3.770 ,,,,,
,7,1,37,30,0.80 ,1,1,1,3.680 ,,,,,
,7,1,38,45,1.20 ,2,-1,0,3.370 ,,,,,
,7,1,39,0,0.80 ,2,-1,0,3.490 ,,,,,
,7,1,40,-45,1.20 ,2,-1,0,3.370 ,,,,,
,7,1,41,15,1.00 ,2,-1,0,3.770 ,,,,,
,7,1,42,-45,1.00 ,1,1,1,3.410 ,,,,,
,7,2,1,30,1.20 ,1,1,1,3.820 ,,,,,
,7,2,2,-30,0.80 ,1,1,1,3.600 ,,,,,
,7,2,3,-45,1.20 ,2,-1,0,3.370 ,,,,,
,7,2,4,-15,1.00 ,2,-1,0,3.780 ,,,,,
,7,2,5,45,0.80 ,1,1,1,3.780 ,,,,,
,7,2,6,45,1.00 ,2,-1,0,3.730 ,,,,,
,7,2,7,15,1.00 ,2,-1,0,3.470 ,,,,,
,7,2,8,-30,1.20 ,2,-1,0,4.120 ,,,,,
,7,2,9,0,1.00 ,1,1,1,3.400 ,,,,,
,7,2,10,15,0.80 ,1,1,1,3.930 ,,,,,
,7,2,11,0,1.20 ,2,-1,0,3.660 ,,,,,
,7,2,12,-30,1.00 ,2,-1,0,3.730 ,,,,,
,7,2,13,0,0.80 ,1,1,1,3.640 ,,,,,
,7,2,14,30,0.80 ,1,1,1,4.480 ,,,,,
,7,2,15,45,1.20 ,1,1,0,3.380 ,,,,,
,7,2,16,-15,1.20 ,2,-1,0,3.470 ,,,,,
,7,2,17,30,1.20 ,2,-1,0,3.370 ,,,,,
,7,2,18,30,0.80 ,2,-1,0,3.870 ,,,,,
,7,2,19,-15,1.00 ,1,1,1,3.820 ,,,,,
,7,2,20,15,1.20 ,1,1,0,3.780 ,,,,,
,7,2,21,-30,1.20 ,1,1,0,4.860 ,,,,,
,7,2,22,45,1.00 ,1,1,0,3.390 ,,,,,
,7,2,23,0,0.80 ,2,-1,0,3.360 ,,,,,
,7,2,24,-15,0.80 ,1,1,1,3.510 ,,,,,
,7,2,25,0,1.20 ,1,1,1,3.510 ,,,,,
,7,2,26,15,1.00 ,1,1,1,3.370 ,,,,,
,7,2,27,-15,1.20 ,1,1,1,3.410 ,,,,,
,7,2,28,15,0.80 ,2,-1,0,3.660 ,,,,,
,7,2,29,30,1.00 ,1,1,0,3.900 ,,,,,
,7,2,30,0,1.00 ,2,-1,0,3.700 ,,,,,
,7,2,31,-30,0.80 ,2,-1,0,3.540 ,,,,,
,7,2,32,-15,0.80 ,2,-1,0,3.380 ,,,,,
,7,2,33,-45,1.00 ,1,1,1,3.510 ,,,,,
,7,2,34,-30,1.00 ,1,1,1,3.460 ,,,,,
,7,2,35,30,1.00 ,2,-1,0,3.360 ,,,,,
,7,2,36,-45,1.20 ,1,1,1,3.450 ,,,,,
,7,2,37,45,1.20 ,2,-1,0,3.400 ,,,,,
,7,2,38,45,0.80 ,2,-1,0,3.370 ,,,,,
,7,2,39,-45,0.80 ,2,-1,1,3.440 ,,,,,
,7,2,40,-45,1.00 ,2,-1,1,3.370 ,,,,,
,7,2,41,-45,0.80 ,1,1,1,3.360 ,,,,,
,7,2,42,15,1.20 ,2,-1,0,3.370 ,,,,,
,7,3,1,0,0.80 ,1,1,1,3.830 ,,,,,
,7,3,2,15,1.00 ,1,1,1,3.370 ,,,,,
,7,3,3,-30,0.80 ,1,1,1,3.370 ,,,,,
,7,3,4,0,1.20 ,2,-1,0,3.450 ,,,,,
,7,3,5,45,0.80 ,1,1,0,3.490 ,,,,,
,7,3,6,0,0.80 ,2,-1,0,3.420 ,,,,,
,7,3,7,0,1.20 ,1,1,0,3.360 ,,,,,
,7,3,8,15,1.00 ,2,-1,0,3.370 ,,,,,
,7,3,9,45,1.20 ,2,-1,0,3.370 ,,,,,
,7,3,10,15,1.20 ,2,-1,0,4.140 ,,,,,
,7,3,11,0,1.00 ,1,1,0,3.590 ,,,,,
,7,3,12,-30,1.00 ,2,-1,1,3.460 ,,,,,
,7,3,13,-45,1.20 ,2,-1,1,3.470 ,,,,,
,7,3,14,-15,0.80 ,2,-1,1,3.480 ,,,,,
,7,3,15,-30,1.00 ,1,1,1,3.360 ,,,,,
,7,3,16,30,1.20 ,2,-1,0,3.380 ,,,,,
,7,3,17,15,0.80 ,2,-1,0,3.420 ,,,,,
,7,3,18,30,1.00 ,1,1,0,3.920 ,,,,,
,7,3,19,30,1.20 ,1,1,0,3.680 ,,,,,
,7,3,20,-45,1.00 ,2,-1,1,3.480 ,,,,,
,7,3,21,-15,1.20 ,2,-1,1,5.640 ,,,,,
,7,3,22,30,0.80 ,1,1,0,3.840 ,,,,,
,7,3,23,-45,0.80 ,2,-1,1,3.930 ,,,,,
,7,3,24,-15,1.20 ,1,1,1,3.560 ,,,,,
,7,3,25,-15,1.00 ,2,-1,1,3.470 ,,,,,
,7,3,26,45,0.80 ,2,-1,0,3.370 ,,,,,
,7,3,27,-30,1.20 ,1,1,1,3.380 ,,,,,
,7,3,28,30,0.80 ,2,-1,0,3.370 ,,,,,
,7,3,29,-15,1.00 ,1,1,1,3.720 ,,,,,
,7,3,30,0,1.00 ,2,-1,0,3.430 ,,,,,
,7,3,31,-45,1.00 ,1,1,1,3.650 ,,,,,
,7,3,32,15,1.20 ,1,1,1,3.480 ,,,,,
,7,3,33,45,1.20 ,1,1,1,3.450 ,,,,,
,7,3,34,-15,0.80 ,1,1,1,3.570 ,,,,,
,7,3,35,45,1.00 ,2,-1,0,3.520 ,,,,,
,7,3,36,15,0.80 ,1,1,1,3.360 ,,,,,
,7,3,37,-30,0.80 ,2,-1,0,3.370 ,,,,,
,7,3,38,-45,1.20 ,1,1,1,3.450 ,,,,,
,7,3,39,30,1.00 ,2,-1,0,3.410 ,,,,,
,7,3,40,-45,0.80 ,1,1,1,3.500 ,,,,,
,7,3,41,-30,1.20 ,2,-1,0,3.590 ,,,,,
,7,3,42,45,1.00 ,1,1,1,3.570 ,,,,,
,8,1,1,30,1.00 ,2,-1,1,6.190 ,,,,,
,8,1,2,-15,1.00 ,1,1,1,4.140 ,,,,,
,8,1,3,30,0.80 ,1,1,1,3.930 ,,,,,
,8,1,4,15,1.20 ,2,-1,0,3.610 ,,,,,
,8,1,5,-30,0.80 ,1,1,1,4.060 ,,,,,
,8,1,6,-30,1.00 ,2,-1,1,6.310 ,,,,,
,8,1,7,30,1.20 ,1,1,1,9.320 ,,,,,
,8,1,8,-30,1.20 ,1,1,1,4.150 ,,,,,
,8,1,9,45,1.20 ,2,-1,1,5.160 ,,,,,
,8,1,10,15,1.20 ,1,1,0,4.810 ,,,,,
,8,1,11,45,1.00 ,2,-1,0,3.990 ,,,,,
,8,1,12,-30,1.00 ,1,1,1,5.140 ,,,,,
,8,1,13,15,0.80 ,2,-1,0,4.670 ,,,,,
,8,1,14,-30,0.80 ,2,-1,0,3.920 ,,,,,
,8,1,15,-45,1.20 ,1,1,1,4.670 ,,,,,
,8,1,16,-15,0.80 ,2,-1,1,4.100 ,,,,,
,8,1,17,-45,0.80 ,2,-1,0,4.030 ,,,,,
,8,1,18,-15,1.20 ,2,-1,1,4.820 ,,,,,
,8,1,19,0,0.80 ,2,-1,0,4.270 ,,,,,
,8,1,20,0,0.80 ,1,1,0,7.520 ,,,,,
,8,1,21,-30,1.20 ,2,-1,1,4.260 ,,,,,
,8,1,22,45,1.20 ,1,1,0,3.690 ,,,,,
,8,1,23,-45,0.80 ,1,1,0,7.540 ,,,,,
,8,1,24,30,0.80 ,2,-1,0,3.910 ,,,,,
,8,1,25,15,0.80 ,1,1,0,4.010 ,,,,,
,8,1,26,45,0.80 ,1,1,0,3.780 ,,,,,
,8,1,27,-15,1.20 ,1,1,1,3.740 ,,,,,
,8,1,28,-45,1.20 ,2,-1,1,3.670 ,,,,,
,8,1,29,-15,0.80 ,1,1,0,4.920 ,,,,,
,8,1,30,-45,1.00 ,1,1,0,3.570 ,,,,,
,8,1,31,30,1.00 ,1,1,0,3.810 ,,,,,
,8,1,32,0,1.00 ,1,1,0,3.640 ,,,,,
,8,1,33,45,0.80 ,2,-1,1,7.810 ,,,,,
,8,1,34,0,1.00 ,2,-1,1,3.780 ,,,,,
,8,1,35,15,1.00 ,1,1,0,3.750 ,,,,,
,8,1,36,15,1.00 ,2,-1,1,6.790 ,,,,,
,8,1,37,-45,1.00 ,2,-1,1,3.670 ,,,,,
,8,1,38,-15,1.00 ,2,-1,1,3.600 ,,,,,
,8,1,39,30,1.20 ,2,-1,1,3.700 ,,,,,
,8,1,40,0,1.20 ,2,-1,1,3.720 ,,,,,
,8,1,41,0,1.20 ,1,1,0,3.740 ,,,,,
,8,1,42,45,1.00 ,1,1,0,3.630 ,,,,,
,8,2,1,-30,1.20 ,2,-1,1,3.640 ,,,,,
,8,2,2,-30,1.00 ,1,1,0,3.650 ,,,,,
,8,2,3,-45,1.00 ,2,-1,1,3.680 ,,,,,
,8,2,4,15,1.20 ,2,-1,1,3.690 ,,,,,
,8,2,5,-30,0.80 ,1,1,0,3.700 ,,,,,
,8,2,6,-30,1.00 ,2,-1,1,3.660 ,,,,,
,8,2,7,45,1.00 ,2,-1,1,3.600 ,,,,,
,8,2,8,45,1.20 ,2,-1,1,3.640 ,,,,,
,8,2,9,-45,1.20 ,2,-1,1,3.630 ,,,,,
,8,2,10,15,1.00 ,1,1,0,3.610 ,,,,,
,8,2,11,-15,1.00 ,1,1,0,3.640 ,,,,,
,8,2,12,45,0.80 ,1,1,0,3.700 ,,,,,
,8,2,13,15,1.20 ,1,1,0,3.580 ,,,,,
,8,2,14,-30,1.20 ,1,1,0,3.490 ,,,,,
,8,2,15,-15,0.80 ,1,1,0,3.570 ,,,,,
,8,2,16,15,0.80 ,1,1,0,3.660 ,,,,,
,8,2,17,30,0.80 ,1,1,0,4.830 ,,,,,
,8,2,18,-30,0.80 ,2,-1,1,3.450 ,,,,,
,8,2,19,30,1.00 ,1,1,0,3.410 ,,,,,
,8,2,20,-45,0.80 ,2,-1,1,5.250 ,,,,,
,8,2,21,0,1.00 ,2,-1,1,3.780 ,,,,,
,8,2,22,-45,0.80 ,1,1,0,3.520 ,,,,,
,8,2,23,-15,1.00 ,2,-1,1,3.660 ,,,,,
,8,2,24,30,1.20 ,2,-1,1,3.590 ,,,,,
,8,2,25,15,1.00 ,2,-1,1,3.710 ,,,,,
,8,2,26,30,1.20 ,1,1,0,3.530 ,,,,,
,8,2,27,-15,0.80 ,2,-1,1,3.850 ,,,,,
,8,2,28,0,1.20 ,2,-1,1,3.580 ,,,,,
,8,2,29,45,0.80 ,2,-1,1,3.790 ,,,,,
,8,2,30,30,1.00 ,2,-1,1,3.650 ,,,,,
,8,2,31,-15,1.20 ,1,1,0,3.610 ,,,,,
,8,2,32,-15,1.20 ,2,-1,1,3.610 ,,,,,
,8,2,33,0,1.00 ,1,1,0,3.630 ,,,,,
,8,2,34,15,0.80 ,2,-1,1,4.060 ,,,,,
,8,2,35,45,1.20 ,1,1,0,3.600 ,,,,,
,8,2,36,0,0.80 ,2,-1,0,3.670 ,,,,,
,8,2,37,0,1.20 ,1,1,0,3.650 ,,,,,
,8,2,38,-45,1.00 ,1,1,1,3.780 ,,,,,
,8,2,39,-45,1.20 ,1,1,1,3.630 ,,,,,
,8,2,40,45,1.00 ,1,1,0,3.710 ,,,,,
,8,2,41,0,0.80 ,1,1,0,3.690 ,,,,,
,8,2,42,30,0.80 ,2,-1,0,3.700 ,,,,,
,8,3,1,-30,0.80 ,1,1,0,3.580 ,,,,,
,8,3,2,15,1.20 ,1,1,0,3.570 ,,,,,
,8,3,3,-15,1.00 ,2,-1,1,3.640 ,,,,,
,8,3,4,15,0.80 ,1,1,0,3.640 ,,,,,
,8,3,5,30,0.80 ,2,-1,0,3.670 ,,,,,
,8,3,6,-30,1.00 ,2,-1,1,3.620 ,,,,,
,8,3,7,30,1.00 ,1,1,0,3.630 ,,,,,
,8,3,8,-15,1.20 ,1,1,0,3.620 ,,,,,
,8,3,9,0,1.00 ,2,-1,1,3.650 ,,,,,
,8,3,10,-45,0.80 ,1,1,1,3.650 ,,,,,
,8,3,11,-30,0.80 ,2,-1,1,3.720 ,,,,,
,8,3,12,-45,0.80 ,2,-1,1,3.620 ,,,,,
,8,3,13,45,1.00 ,1,1,0,3.630 ,,,,,
,8,3,14,0,0.80 ,2,-1,1,3.650 ,,,,,
,8,3,15,15,1.00 ,1,1,0,3.650 ,,,,,
,8,3,16,45,1.20 ,1,1,0,3.650 ,,,,,
,8,3,17,15,1.00 ,2,-1,0,3.590 ,,,,,
,8,3,18,-15,0.80 ,1,1,0,4.330 ,,,,,
,8,3,19,-45,1.20 ,1,1,0,3.810 ,,,,,
,8,3,20,30,1.00 ,2,-1,0,3.700 ,,,,,
,8,3,21,45,1.20 ,2,-1,0,3.920 ,,,,,
,8,3,22,30,0.80 ,1,1,0,3.440 ,,,,,
,8,3,23,-15,1.20 ,2,-1,0,3.440 ,,,,,
,8,3,24,0,1.20 ,2,-1,0,3.510 ,,,,,
,8,3,25,45,0.80 ,2,-1,1,5.460 ,,,,,
,8,3,26,30,1.20 ,1,1,1,4.680 ,,,,,
,8,3,27,-15,1.00 ,1,1,1,3.660 ,,,,,
,8,3,28,0,1.20 ,1,1,1,5.370 ,,,,,
,8,3,29,15,1.20 ,2,-1,0,3.900 ,,,,,
,8,3,30,-30,1.00 ,1,1,1,4.460 ,,,,,
,8,3,31,-30,1.20 ,1,1,1,3.670 ,,,,,
,8,3,32,45,0.80 ,1,1,1,4.790 ,,,,,
,8,3,33,30,1.20 ,2,-1,1,7.280 ,,,,,
,8,3,34,-45,1.00 ,1,1,0,3.650 ,,,,,
,8,3,35,-15,0.80 ,2,-1,0,3.720 ,,,,,
,8,3,36,-30,1.20 ,2,-1,0,4.680 ,,,,,
,8,3,37,-45,1.20 ,2,-1,0,4.080 ,,,,,
,8,3,38,0,1.00 ,1,1,1,4.160 ,,,,,
,8,3,39,45,1.00 ,2,-1,1,4.520 ,,,,,
,8,3,40,15,0.80 ,2,-1,0,3.710 ,,,,,
,8,3,41,-45,1.00 ,2,-1,1,3.370 ,,,,,
,8,3,42,0,0.80 ,1,1,0,4.130 ,,,,,
,9,1,1,-15,1.20 ,1,1,1,5.700 ,,,,,
,9,1,2,30,0.80 ,1,1,0,3.780 ,,,,,
,9,1,3,15,0.80 ,1,1,0,3.750 ,,,,,
,9,1,4,45,0.80 ,2,-1,0,4.020 ,,,,,
,9,1,5,-45,0.80 ,1,1,1,4.130 ,,,,,
,9,1,6,0,1.20 ,2,-1,0,3.910 ,,,,,
,9,1,7,45,1.00 ,2,-1,0,3.470 ,,,,,
,9,1,8,-30,0.80 ,1,1,1,3.460 ,,,,,
,9,1,9,-15,0.80 ,1,1,0,3.690 ,,,,,
,9,1,10,-45,0.80 ,2,-1,1,3.610 ,,,,,
,9,1,11,15,0.80 ,2,-1,1,3.570 ,,,,,
,9,1,12,15,1.20 ,2,-1,0,3.650 ,,,,,
,9,1,13,0,1.00 ,2,-1,0,3.620 ,,,,,
,9,1,14,-15,1.20 ,2,-1,0,3.730 ,,,,,
,9,1,15,0,0.80 ,2,-1,0,3.660 ,,,,,
,9,1,16,-30,1.00 ,2,-1,1,3.630 ,,,,,
,9,1,17,45,1.00 ,1,1,0,3.620 ,,,,,
,9,1,18,30,1.00 ,2,-1,0,3.370 ,,,,,
,9,1,19,30,1.00 ,1,1,0,3.430 ,,,,,
,9,1,20,45,1.20 ,1,1,0,3.720 ,,,,,
,9,1,21,-45,1.00 ,1,1,1,3.720 ,,,,,
,9,1,22,-15,1.00 ,1,1,0,3.700 ,,,,,
,9,1,23,15,1.00 ,2,-1,0,3.640 ,,,,,
,9,1,24,-15,1.00 ,2,-1,0,3.610 ,,,,,
,9,1,25,30,1.20 ,1,1,0,3.650 ,,,,,
,9,1,26,0,1.20 ,1,1,0,3.620 ,,,,,
,9,1,27,30,0.80 ,2,-1,0,3.670 ,,,,,
,9,1,28,15,1.00 ,1,1,0,3.540 ,,,,,
,9,1,29,-30,1.00 ,1,1,1,3.530 ,,,,,
,9,1,30,45,1.20 ,2,-1,0,3.630 ,,,,,
,9,1,31,-15,0.80 ,2,-1,0,3.680 ,,,,,
,9,1,32,-45,1.00 ,2,-1,1,3.710 ,,,,,
,9,1,33,-30,1.20 ,2,-1,1,3.920 ,,,,,
,9,1,34,0,1.00 ,1,1,0,3.730 ,,,,,
,9,1,35,15,1.20 ,1,1,0,3.550 ,,,,,
,9,1,36,-45,1.20 ,1,1,1,4.260 ,,,,,
,9,1,37,30,1.20 ,2,-1,0,3.630 ,,,,,
,9,1,38,-45,1.20 ,2,-1,1,3.560 ,,,,,
,9,1,39,0,0.80 ,1,1,0,3.600 ,,,,,
,9,1,40,-30,0.80 ,2,-1,1,3.610 ,,,,,
,9,1,41,-30,1.20 ,1,1,1,3.710 ,,,,,
,9,1,42,45,0.80 ,1,1,0,3.640 ,,,,,
,9,2,1,0,0.80 ,1,1,0,3.600 ,,,,,
,9,2,2,0,0.80 ,2,-1,0,3.530 ,,,,,
,9,2,3,-30,0.80 ,1,1,0,3.560 ,,,,,
,9,2,4,45,1.00 ,2,-1,0,3.590 ,,,,,
,9,2,5,15,1.20 ,1,1,0,3.560 ,,,,,
,9,2,6,15,1.00 ,1,1,0,3.630 ,,,,,
,9,2,7,30,1.20 ,2,-1,0,3.620 ,,,,,
,9,2,8,15,1.20 ,2,-1,0,3.620 ,,,,,
,9,2,9,-15,0.80 ,2,-1,1,4.890 ,,,,,
,9,2,10,45,1.00 ,1,1,0,3.900 ,,,,,
,9,2,11,-45,1.00 ,1,1,1,4.270 ,,,,,
,9,2,12,-30,1.00 ,1,1,1,3.990 ,,,,,
,9,2,13,15,1.00 ,2,-1,0,3.620 ,,,,,
,9,2,14,30,0.80 ,1,1,0,3.560 ,,,,,
,9,2,15,30,1.00 ,1,1,0,3.590 ,,,,,
,9,2,16,-30,1.00 ,2,-1,1,3.600 ,,,,,
,9,2,17,-45,0.80 ,1,1,1,3.620 ,,,,,
,9,2,18,-45,1.20 ,1,1,1,3.530 ,,,,,
,9,2,19,30,0.80 ,2,-1,0,3.550 ,,,,,
,9,2,20,-15,1.20 ,2,-1,1,3.580 ,,,,,
,9,2,21,45,1.20 ,1,1,0,3.560 ,,,,,
,9,2,22,-15,0.80 ,1,1,0,3.670 ,,,,,
,9,2,23,-30,1.20 ,2,-1,1,3.610 ,,,,,
,9,2,24,0,1.20 ,2,-1,0,5.210 ,,,,,
,9,2,25,0,1.00 ,2,-1,0,3.640 ,,,,,
,9,2,26,-15,1.00 ,1,1,0,3.610 ,,,,,
,9,2,27,-15,1.00 ,2,-1,0,3.620 ,,,,,
,9,2,28,30,1.20 ,1,1,0,3.620 ,,,,,
,9,2,29,0,1.20 ,1,1,0,3.630 ,,,,,
,9,2,30,45,0.80 ,2,-1,0,3.600 ,,,,,
,9,2,31,15,0.80 ,1,1,0,3.640 ,,,,,
,9,2,32,-30,0.80 ,2,-1,1,3.530 ,,,,,
,9,2,33,-45,0.80 ,2,-1,1,3.580 ,,,,,
,9,2,34,30,1.00 ,2,-1,0,3.560 ,,,,,
,9,2,35,-30,1.20 ,1,1,1,3.630 ,,,,,
,9,2,36,-45,1.00 ,2,-1,1,3.470 ,,,,,
,9,2,37,45,0.80 ,1,1,0,4.190 ,,,,,
,9,2,38,45,1.20 ,2,-1,0,3.580 ,,,,,
,9,2,39,-15,1.20 ,1,1,0,3.610 ,,,,,
,9,2,40,15,0.80 ,2,-1,0,3.550 ,,,,,
,9,2,41,-45,1.20 ,2,-1,1,3.630 ,,,,,
,9,2,42,0,1.00 ,1,1,0,3.510 ,,,,,
,9,3,1,-15,1.00 ,1,1,0,3.640 ,,,,,
,9,3,2,-15,1.20 ,2,-1,0,3.520 ,,,,,
,9,3,3,0,0.80 ,1,1,0,3.490 ,,,,,
,9,3,4,-15,1.20 ,1,1,1,3.360 ,,,,,
,9,3,5,30,1.00 ,2,-1,0,3.670 ,,,,,
,9,3,6,-15,0.80 ,1,1,1,3.420 ,,,,,
,9,3,7,15,0.80 ,2,-1,0,3.500 ,,,,,
,9,3,8,45,1.00 ,1,1,0,3.680 ,,,,,
,9,3,9,30,0.80 ,1,1,0,3.690 ,,,,,
,9,3,10,-15,0.80 ,2,-1,1,3.530 ,,,,,
,9,3,11,30,1.20 ,2,-1,0,3.410 ,,,,,
,9,3,12,-30,1.20 ,2,-1,1,3.570 ,,,,,
,9,3,13,45,1.20 ,1,1,0,3.370 ,,,,,
,9,3,14,0,1.20 ,2,-1,0,3.810 ,,,,,
,9,3,15,45,0.80 ,1,1,0,3.680 ,,,,,
,9,3,16,-30,0.80 ,1,1,1,3.530 ,,,,,
,9,3,17,15,1.20 ,2,-1,0,3.490 ,,,,,
,9,3,18,15,0.80 ,1,1,0,3.850 ,,,,,
,9,3,19,-45,0.80 ,1,1,1,3.640 ,,,,,
,9,3,20,-45,0.80 ,2,-1,1,3.530 ,,,,,
,9,3,21,-45,1.00 ,2,-1,1,3.500 ,,,,,
,9,3,22,0,0.80 ,2,-1,0,3.560 ,,,,,
,9,3,23,30,0.80 ,2,-1,1,6.200 ,,,,,
,9,3,24,45,1.20 ,2,-1,0,3.630 ,,,,,
,9,3,25,0,1.00 ,2,-1,0,3.530 ,,,,,
,9,3,26,15,1.20 ,1,1,0,3.650 ,,,,,
,9,3,27,45,0.80 ,2,-1,0,3.500 ,,,,,
,9,3,28,0,1.20 ,1,1,0,3.620 ,,,,,
,9,3,29,-45,1.20 ,1,1,1,3.570 ,,,,,
,9,3,30,15,1.00 ,2,-1,0,3.570 ,,,,,
,9,3,31,-30,1.00 ,1,1,1,3.540 ,,,,,
,9,3,32,-30,1.00 ,2,-1,1,3.620 ,,,,,
,9,3,33,-30,1.20 ,1,1,1,3.620 ,,,,,
,9,3,34,45,1.00 ,2,-1,0,3.660 ,,,,,
,9,3,35,30,1.00 ,1,1,0,4.030 ,,,,,
,9,3,36,-45,1.00 ,1,1,1,3.650 ,,,,,
,9,3,37,-30,0.80 ,2,-1,0,3.580 ,,,,,
,9,3,38,-15,1.00 ,2,-1,1,3.630 ,,,,,
,9,3,39,15,1.00 ,1,1,0,3.600 ,,,,,
,9,3,40,-45,1.20 ,2,-1,1,3.590 ,,,,,
,9,3,41,30,1.20 ,1,1,0,3.640 ,,,,,
,9,3,42,0,1.00 ,1,1,0,3.590 ,,,,,
,10,1,1,-15,1.20 ,1,1,0,5.300 ,,,,,
,10,1,2,30,0.80 ,1,1,0,3.830 ,,,,,
,10,1,3,15,0.80 ,1,1,1,4.060 ,,,,,
,10,1,4,45,0.80 ,2,-1,1,4.560 ,,,,,
,10,1,5,-45,0.80 ,1,1,1,4.360 ,,,,,
,10,1,6,0,1.20 ,2,-1,0,4.490 ,,,,,
,10,1,7,45,1.00 ,2,-1,0,5.360 ,,,,,
,10,1,8,-30,0.80 ,1,1,1,4.370 ,,,,,
,10,1,9,-15,0.80 ,1,1,0,3.850 ,,,,,
,10,1,10,-45,0.80 ,2,-1,1,3.700 ,,,,,
,10,1,11,15,0.80 ,2,-1,1,4.790 ,,,,,
,10,1,12,15,1.20 ,2,-1,0,4.460 ,,,,,
,10,1,13,0,1.00 ,2,-1,0,3.660 ,,,,,
,10,1,14,-15,1.20 ,2,-1,1,3.940 ,,,,,
,10,1,15,0,0.80 ,2,-1,0,3.860 ,,,,,
,10,1,16,-30,1.00 ,2,-1,0,3.740 ,,,,,
,10,1,17,45,1.00 ,1,1,0,3.660 ,,,,,
,10,1,18,30,1.00 ,2,-1,0,3.900 ,,,,,
,10,1,19,30,1.00 ,1,1,0,3.370 ,,,,,
,10,1,20,45,1.20 ,1,1,0,3.670 ,,,,,
,10,1,21,-45,1.00 ,1,1,1,3.780 ,,,,,
,10,1,22,-15,1.00 ,1,1,0,3.710 ,,,,,
,10,1,23,15,1.00 ,2,-1,0,4.620 ,,,,,
,10,1,24,-15,1.00 ,2,-1,1,5.000 ,,,,,
,10,1,25,30,1.20 ,1,1,0,3.820 ,,,,,
,10,1,26,0,1.20 ,1,1,0,3.770 ,,,,,
,10,1,27,30,0.80 ,2,-1,1,3.730 ,,,,,
,10,1,28,15,1.00 ,1,1,0,3.740 ,,,,,
,10,1,29,-30,1.00 ,1,1,1,4.070 ,,,,,
,10,1,30,45,1.20 ,2,-1,0,3.650 ,,,,,
,10,1,31,-15,0.80 ,2,-1,1,3.640 ,,,,,
,10,1,32,-45,1.00 ,2,-1,1,3.620 ,,,,,
,10,1,33,-30,1.20 ,2,-1,0,3.730 ,,,,,
,10,1,34,0,1.00 ,1,1,0,3.730 ,,,,,
,10,1,35,15,1.20 ,1,1,0,3.770 ,,,,,
,10,1,36,-45,1.20 ,1,1,1,3.700 ,,,,,
,10,1,37,30,1.20 ,2,-1,0,3.670 ,,,,,
,10,1,38,-45,1.20 ,2,-1,1,4.030 ,,,,,
,10,1,39,0,0.80 ,1,1,1,4.370 ,,,,,
,10,1,40,-30,0.80 ,2,-1,0,4.880 ,,,,,
,10,1,41,-30,1.20 ,1,1,0,4.140 ,,,,,
,10,1,42,45,0.80 ,1,1,1,3.940 ,,,,,
,10,2,1,0,0.80 ,1,1,1,4.470 ,,,,,
,10,2,2,0,0.80 ,2,-1,0,3.940 ,,,,,
,10,2,3,-30,0.80 ,1,1,1,4.140 ,,,,,
,10,2,4,45,1.00 ,2,-1,0,3.610 ,,,,,
,10,2,5,15,1.20 ,1,1,0,3.830 ,,,,,
,10,2,6,15,1.00 ,1,1,0,3.980 ,,,,,
,10,2,7,30,1.20 ,2,-1,0,3.640 ,,,,,
,10,2,8,15,1.20 ,2,-1,0,3.620 ,,,,,
,10,2,9,-15,0.80 ,2,-1,0,4.000 ,,,,,
,10,2,10,45,1.00 ,1,1,1,3.940 ,,,,,
,10,2,11,-45,1.00 ,1,1,0,3.750 ,,,,,
,10,2,12,-30,1.00 ,1,1,1,3.860 ,,,,,
,10,2,13,15,1.00 ,2,-1,0,4.750 ,,,,,
,10,2,14,30,0.80 ,1,1,1,3.970 ,,,,,
,10,2,15,30,1.00 ,1,1,0,3.690 ,,,,,
,10,2,16,-30,1.00 ,2,-1,1,3.570 ,,,,,
,10,2,17,-45,0.80 ,1,1,1,3.610 ,,,,,
,10,2,18,-45,1.20 ,1,1,0,3.650 ,,,,,
,10,2,19,30,0.80 ,2,-1,1,3.990 ,,,,,
,10,2,20,-15,1.20 ,2,-1,0,4.300 ,,,,,
,10,2,21,45,1.20 ,1,1,0,3.580 ,,,,,
,10,2,22,-15,0.80 ,1,1,1,3.830 ,,,,,
,10,2,23,-30,1.20 ,2,-1,0,3.960 ,,,,,
,10,2,24,0,1.20 ,2,-1,0,3.630 ,,,,,
,10,2,25,0,1.00 ,2,-1,0,3.700 ,,,,,
,10,2,26,-15,1.00 ,1,1,0,3.770 ,,,,,
,10,2,27,-15,1.00 ,2,-1,0,3.770 ,,,,,
,10,2,28,30,1.20 ,1,1,0,3.660 ,,,,,
,10,2,29,0,1.20 ,1,1,0,3.860 ,,,,,
,10,2,30,45,0.80 ,2,-1,0,3.980 ,,,,,
,10,2,31,15,0.80 ,1,1,0,3.770 ,,,,,
,10,2,32,-30,0.80 ,2,-1,1,3.590 ,,,,,
,10,2,33,-45,0.80 ,2,-1,1,3.600 ,,,,,
,10,2,34,30,1.00 ,2,-1,0,3.400 ,,,,,
,10,2,35,-30,1.20 ,1,1,0,3.610 ,,,,,
,10,2,36,-45,1.00 ,2,-1,1,3.670 ,,,,,
,10,2,37,45,0.80 ,1,1,0,3.640 ,,,,,
,10,2,38,45,1.20 ,2,-1,0,3.600 ,,,,,
,10,2,39,-15,1.20 ,1,1,0,3.670 ,,,,,
,10,2,40,15,0.80 ,2,-1,0,4.300 ,,,,,
,10,2,41,-45,1.20 ,2,-1,1,3.590 ,,,,,
,10,2,42,0,1.00 ,1,1,0,3.710 ,,,,,
,10,3,1,-15,1.00 ,1,1,1,4.540 ,,,,,
,10,3,2,-15,1.20 ,2,-1,0,3.620 ,,,,,
,10,3,3,0,0.80 ,1,1,1,3.840 ,,,,,
,10,3,4,-15,1.20 ,1,1,0,4.400 ,,,,,
,10,3,5,30,1.00 ,2,-1,0,3.700 ,,,,,
,10,3,6,-15,0.80 ,1,1,1,3.580 ,,,,,
,10,3,7,15,0.80 ,2,-1,0,3.650 ,,,,,
,10,3,8,45,1.00 ,1,1,0,3.600 ,,,,,
,10,3,9,30,0.80 ,1,1,1,4.110 ,,,,,
,10,3,10,-15,0.80 ,2,-1,1,4.000 ,,,,,
,10,3,11,30,1.20 ,2,-1,0,4.010 ,,,,,
,10,3,12,-30,1.20 ,2,-1,0,3.800 ,,,,,
,10,3,13,45,1.20 ,1,1,0,3.620 ,,,,,
,10,3,14,0,1.20 ,2,-1,0,3.590 ,,,,,
,10,3,15,45,0.80 ,1,1,0,3.900 ,,,,,
,10,3,16,-30,0.80 ,1,1,1,3.630 ,,,,,
,10,3,17,15,1.20 ,2,-1,0,3.950 ,,,,,
,10,3,18,15,0.80 ,1,1,1,4.020 ,,,,,
,10,3,19,-45,0.80 ,1,1,1,3.630 ,,,,,
,10,3,20,-45,0.80 ,2,-1,1,3.670 ,,,,,
,10,3,21,-45,1.00 ,2,-1,1,3.630 ,,,,,
,10,3,22,0,0.80 ,2,-1,0,4.000 ,,,,,
,10,3,23,30,0.80 ,2,-1,0,3.760 ,,,,,
,10,3,24,45,1.20 ,2,-1,0,3.630 ,,,,,
,10,3,25,0,1.00 ,2,-1,0,3.620 ,,,,,
,10,3,26,15,1.20 ,1,1,0,3.750 ,,,,,
,10,3,27,45,0.80 ,2,-1,0,4.030 ,,,,,
,10,3,28,0,1.20 ,1,1,0,3.640 ,,,,,
,10,3,29,-45,1.20 ,1,1,0,4.030 ,,,,,
,10,3,30,15,1.00 ,2,-1,0,3.850 ,,,,,
,10,3,31,-30,1.00 ,1,1,1,3.730 ,,,,,
,10,3,32,-30,1.00 ,2,-1,1,3.670 ,,,,,
,10,3,33,-30,1.20 ,1,1,0,3.720 ,,,,,
,10,3,34,45,1.00 ,2,-1,0,3.710 ,,,,,
,10,3,35,30,1.00 ,1,1,0,3.680 ,,,,,
,10,3,36,-45,1.00 ,1,1,1,3.820 ,,,,,
,10,3,37,-30,0.80 ,2,-1,1,3.610 ,,,,,
,10,3,38,-15,1.00 ,2,-1,1,3.630 ,,,,,
,10,3,39,15,1.00 ,1,1,0,3.670 ,,,,,
,10,3,40,-45,1.20 ,2,-1,1,5.100 ,,,,,
,10,3,41,30,1.20 ,1,1,0,3.850 ,,,,,
,10,3,42,0,1.00 ,1,1,0,3.660 ,,,,,
,11,1,1,-15,1.20 ,1,1,1,3.640 ,,,,,
,11,1,2,30,0.80 ,1,1,0,3.620 ,,,,,
,11,1,3,15,0.80 ,1,1,1,4.400 ,,,,,
,11,1,4,45,0.80 ,2,-1,0,3.580 ,,,,,
,11,1,5,-45,0.80 ,1,1,0,3.670 ,,,,,
,11,1,6,0,1.20 ,2,-1,0,3.570 ,,,,,
,11,1,7,45,1.00 ,2,-1,1,3.650 ,,,,,
,11,1,8,-30,0.80 ,1,1,0,3.720 ,,,,,
,11,1,9,-15,0.80 ,1,1,0,3.620 ,,,,,
,11,1,10,-45,0.80 ,2,-1,0,3.580 ,,,,,
,11,1,11,15,0.80 ,2,-1,0,3.550 ,,,,,
,11,1,12,15,1.20 ,2,-1,1,3.620 ,,,,,
,11,1,13,0,1.00 ,2,-1,0,3.610 ,,,,,
,11,1,14,-15,1.20 ,2,-1,1,4.210 ,,,,,
,11,1,15,0,0.80 ,2,-1,0,3.620 ,,,,,
,11,1,16,-30,1.00 ,2,-1,1,3.650 ,,,,,
,11,1,17,45,1.00 ,1,1,0,3.800 ,,,,,
,11,1,18,30,1.00 ,2,-1,0,3.800 ,,,,,
,11,1,19,30,1.00 ,1,1,1,3.600 ,,,,,
,11,1,20,45,1.20 ,1,1,1,3.580 ,,,,,
,11,1,21,-45,1.00 ,1,1,1,3.770 ,,,,,
,11,1,22,-15,1.00 ,1,1,1,3.600 ,,,,,
,11,1,23,15,1.00 ,2,-1,0,3.600 ,,,,,
,11,1,24,-15,1.00 ,2,-1,1,3.580 ,,,,,
,11,1,25,30,1.20 ,1,1,0,3.580 ,,,,,
,11,1,26,0,1.20 ,1,1,0,4.130 ,,,,,
,11,1,27,30,0.80 ,2,-1,0,3.610 ,,,,,
,11,1,28,15,1.00 ,1,1,0,3.590 ,,,,,
,11,1,29,-30,1.00 ,1,1,1,3.670 ,,,,,
,11,1,30,45,1.20 ,2,-1,0,3.560 ,,,,,
,11,1,31,-15,0.80 ,2,-1,1,3.640 ,,,,,
,11,1,32,-45,1.00 ,2,-1,1,3.820 ,,,,,
,11,1,33,-30,1.20 ,2,-1,1,3.590 ,,,,,
,11,1,34,0,1.00 ,1,1,0,3.620 ,,,,,
,11,1,35,15,1.20 ,1,1,0,3.510 ,,,,,
,11,1,36,-45,1.20 ,1,1,1,3.510 ,,,,,
,11,1,37,30,1.20 ,2,-1,0,3.620 ,,,,,
,11,1,38,-45,1.20 ,2,-1,1,3.710 ,,,,,
,11,1,39,0,0.80 ,1,1,0,3.370 ,,,,,
,11,1,40,-30,0.80 ,2,-1,1,3.570 ,,,,,
,11,1,41,-30,1.20 ,1,1,1,3.610 ,,,,,
,11,1,42,45,0.80 ,1,1,0,3.590 ,,,,,
,11,2,1,0,0.80 ,1,1,0,3.600 ,,,,,
,11,2,2,0,0.80 ,2,-1,0,3.580 ,,,,,
,11,2,3,-30,0.80 ,1,1,1,3.570 ,,,,,
,11,2,4,45,1.00 ,2,-1,0,3.590 ,,,,,
,11,2,5,15,1.20 ,1,1,0,3.600 ,,,,,
,11,2,6,15,1.00 ,1,1,0,3.600 ,,,,,
,11,2,7,30,1.20 ,2,-1,0,3.580 ,,,,,
,11,2,8,15,1.20 ,2,-1,0,3.590 ,,,,,
,11,2,9,-15,0.80 ,2,-1,1,3.610 ,,,,,
,11,2,10,45,1.00 ,1,1,0,3.580 ,,,,,
,11,2,11,-45,1.00 ,1,1,1,3.590 ,,,,,
,11,2,12,-30,1.00 ,1,1,1,3.520 ,,,,,
,11,2,13,15,1.00 ,2,-1,0,3.540 ,,,,,
,11,2,14,30,0.80 ,1,1,0,3.540 ,,,,,
,11,2,15,30,1.00 ,1,1,0,3.540 ,,,,,
,11,2,16,-30,1.00 ,2,-1,1,3.610 ,,,,,
,11,2,17,-45,0.80 ,1,1,1,3.640 ,,,,,
,11,2,18,-45,1.20 ,1,1,1,3.640 ,,,,,
,11,2,19,30,0.80 ,2,-1,0,3.510 ,,,,,
,11,2,20,-15,1.20 ,2,-1,1,3.590 ,,,,,
,11,2,21,45,1.20 ,1,1,0,3.590 ,,,,,
,11,2,22,-15,0.80 ,1,1,1,3.560 ,,,,,
,11,2,23,-30,1.20 ,2,-1,1,3.640 ,,,,,
,11,2,24,0,1.20 ,2,-1,0,3.600 ,,,,,
,11,2,25,0,1.00 ,2,-1,0,3.410 ,,,,,
,11,2,26,-15,1.00 ,1,1,1,3.520 ,,,,,
,11,2,27,-15,1.00 ,2,-1,1,3.530 ,,,,,
,11,2,28,30,1.20 ,1,1,0,3.610 ,,,,,
,11,2,29,0,1.20 ,1,1,0,3.600 ,,,,,
,11,2,30,45,0.80 ,2,-1,0,3.550 ,,,,,
,11,2,31,15,0.80 ,1,1,0,3.450 ,,,,,
,11,2,32,-30,0.80 ,2,-1,1,3.540 ,,,,,
,11,2,33,-45,0.80 ,2,-1,1,3.600 ,,,,,
,11,2,34,30,1.00 ,2,-1,0,3.490 ,,,,,
,11,2,35,-30,1.20 ,1,1,1,3.470 ,,,,,
,11,2,36,-45,1.00 ,2,-1,1,3.510 ,,,,,
,11,2,37,45,0.80 ,1,1,0,3.540 ,,,,,
,11,2,38,45,1.20 ,2,-1,0,3.540 ,,,,,
,11,2,39,-15,1.20 ,1,1,1,3.610 ,,,,,
,11,2,40,15,0.80 ,2,-1,0,3.450 ,,,,,
,11,2,41,-45,1.20 ,2,-1,1,3.590 ,,,,,
,11,2,42,0,1.00 ,1,1,0,3.540 ,,,,,
,11,3,1,-15,1.00 ,1,1,1,3.780 ,,,,,
,11,3,2,-15,1.20 ,2,-1,1,3.440 ,,,,,
,11,3,3,0,0.80 ,1,1,0,3.520 ,,,,,
,11,3,4,-15,1.20 ,1,1,1,3.610 ,,,,,
,11,3,5,30,1.00 ,2,-1,0,3.620 ,,,,,
,11,3,6,-15,0.80 ,1,1,1,3.560 ,,,,,
,11,3,7,15,0.80 ,2,-1,0,3.560 ,,,,,
,11,3,8,45,1.00 ,1,1,0,3.540 ,,,,,
,11,3,9,30,0.80 ,1,1,0,3.490 ,,,,,
,11,3,10,-15,0.80 ,2,-1,1,3.550 ,,,,,
,11,3,11,30,1.20 ,2,-1,0,3.560 ,,,,,
,11,3,12,-30,1.20 ,2,-1,1,3.520 ,,,,,
,11,3,13,45,1.20 ,1,1,0,3.570 ,,,,,
,11,3,14,0,1.20 ,2,-1,0,3.530 ,,,,,
,11,3,15,45,0.80 ,1,1,0,3.480 ,,,,,
,11,3,16,-30,0.80 ,1,1,1,3.380 ,,,,,
,11,3,17,15,1.20 ,2,-1,0,3.360 ,,,,,
,11,3,18,15,0.80 ,1,1,0,3.490 ,,,,,
,11,3,19,-45,0.80 ,1,1,1,3.560 ,,,,,
,11,3,20,-45,0.80 ,2,-1,1,3.510 ,,,,,
,11,3,21,-45,1.00 ,2,-1,1,3.530 ,,,,,
,11,3,22,0,0.80 ,2,-1,0,3.560 ,,,,,
,11,3,23,30,0.80 ,2,-1,0,3.740 ,,,,,
,11,3,24,45,1.20 ,2,-1,0,3.690 ,,,,,
,11,3,25,0,1.00 ,2,-1,0,3.390 ,,,,,
,11,3,26,15,1.20 ,1,1,0,3.380 ,,,,,
,11,3,27,45,0.80 ,2,-1,0,3.380 ,,,,,
,11,3,28,0,1.20 ,1,1,0,3.570 ,,,,,
,11,3,29,-45,1.20 ,1,1,1,3.540 ,,,,,
,11,3,30,15,1.00 ,2,-1,0,3.740 ,,,,,
,11,3,31,-30,1.00 ,1,1,1,3.600 ,,,,,
,11,3,32,-30,1.00 ,2,-1,1,3.600 ,,,,,
,11,3,33,-30,1.20 ,1,1,1,3.490 ,,,,,
,11,3,34,45,1.00 ,2,-1,0,3.620 ,,,,,
,11,3,35,30,1.00 ,1,1,0,3.560 ,,,,,
,11,3,36,-45,1.00 ,1,1,1,3.430 ,,,,,
,11,3,37,-30,0.80 ,2,-1,1,3.370 ,,,,,
,11,3,38,-15,1.00 ,2,-1,0,3.400 ,,,,,
,11,3,39,15,1.00 ,1,1,0,3.370 ,,,,,
,11,3,40,-45,1.20 ,2,-1,1,3.680 ,,,,,
,11,3,41,30,1.20 ,1,1,0,3.370 ,,,,,
,11,3,42,0,1.00 ,1,1,0,3.370 ,,,,,
,12,1,1,-15,0.80 ,1,1,0,4.010 ,,,,,
,12,1,2,-15,1.20 ,2,-1,0,3.530 ,,,,,
,12,1,3,0,0.80 ,1,1,0,4.140 ,,,,,
,12,1,4,30,1.20 ,1,1,1,3.690 ,,,,,
,12,1,5,-15,0.80 ,2,-1,1,4.050 ,,,,,
,12,1,6,30,1.00 ,1,1,1,4.100 ,,,,,
,12,1,7,0,1.20 ,2,-1,0,3.920 ,,,,,
,12,1,8,30,0.80 ,2,-1,0,4.290 ,,,,,
,12,1,9,45,1.20 ,1,1,1,3.900 ,,,,,
,12,1,10,-30,1.20 ,2,-1,1,8.070 ,,,,,
,12,1,11,45,1.00 ,2,-1,1,6.090 ,,,,,
,12,1,12,-45,0.80 ,1,1,1,3.980 ,,,,,
,12,1,13,15,0.80 ,2,-1,1,4.950 ,,,,,
,12,1,14,-45,1.00 ,1,1,1,4.240 ,,,,,
,12,1,15,30,1.00 ,2,-1,1,3.650 ,,,,,
,12,1,16,-15,1.00 ,2,-1,0,12.800 ,,,,,
,12,1,17,30,1.20 ,2,-1,0,3.370 ,,,,,
,12,1,18,45,0.80 ,2,-1,1,24.200 ,,,,,
,12,1,19,-30,1.20 ,1,1,1,5.680 ,,,,,
,12,1,20,15,1.00 ,1,1,0,4.270 ,,,,,
,12,1,21,-30,1.00 ,1,1,0,7.240 ,,,,,
,12,1,22,0,1.00 ,2,-1,1,5.910 ,,,,,
,12,1,23,15,1.20 ,2,-1,1,3.930 ,,,,,
,12,1,24,45,0.80 ,1,1,0,4.150 ,,,,,
,12,1,25,15,1.00 ,2,-1,0,3.670 ,,,,,
,12,1,26,0,1.20 ,1,1,0,5.230 ,,,,,
,12,1,27,-30,0.80 ,2,-1,1,3.370 ,,,,,
,12,1,28,45,1.00 ,1,1,0,6.360 ,,,,,
,12,1,29,-30,1.00 ,2,-1,1,3.670 ,,,,,
,12,1,30,-15,1.20 ,1,1,0,3.710 ,,,,,
,12,1,31,-15,1.00 ,1,1,1,4.660 ,,,,,
,12,1,32,-45,1.20 ,1,1,0,4.770 ,,,,,
,12,1,33,15,1.20 ,1,1,0,5.580 ,,,,,
,12,1,34,-45,0.80 ,2,-1,1,3.910 ,,,,,
,12,1,35,0,1.00 ,1,1,0,4.140 ,,,,,
,12,1,36,-45,1.20 ,2,-1,1,4.110 ,,,,,
,12,1,37,-45,1.00 ,2,-1,1,5.390 ,,,,,
,12,1,38,15,0.80 ,1,1,0,3.370 ,,,,,
,12,1,39,0,0.80 ,2,-1,0,3.620 ,,,,,
,12,1,40,45,1.20 ,2,-1,0,3.640 ,,,,,
,12,1,41,-30,0.80 ,1,1,1,4.010 ,,,,,
,12,1,42,30,0.80 ,1,1,1,3.720 ,,,,,
,12,2,1,30,0.80 ,1,1,0,5.890 ,,,,,
,12,2,2,-30,1.00 ,2,-1,1,4.390 ,,,,,
,12,2,3,45,1.20 ,1,1,0,6.050 ,,,,,
,12,2,4,15,0.80 ,2,-1,0,4.630 ,,,,,
,12,2,5,-30,1.20 ,1,1,0,4.310 ,,,,,
,12,2,6,30,1.20 ,2,-1,1,4.010 ,,,,,
,12,2,7,0,0.80 ,2,-1,1,4.440 ,,,,,
,12,2,8,45,1.00 ,1,1,0,3.790 ,,,,,
,12,2,9,-15,1.20 ,2,-1,1,4.120 ,,,,,
,12,2,10,45,1.20 ,2,-1,1,3.810 ,,,,,
,12,2,11,-45,1.00 ,1,1,1,3.870 ,,,,,
,12,2,12,0,1.20 ,1,1,0,3.770 ,,,,,
,12,2,13,30,1.00 ,2,-1,1,4.220 ,,,,,
,12,2,14,0,1.20 ,2,-1,1,3.790 ,,,,,
,12,2,15,30,1.00 ,1,1,0,3.890 ,,,,,
,12,2,16,-45,1.20 ,1,1,1,3.760 ,,,,,
,12,2,17,0,0.80 ,1,1,0,5.830 ,,,,,
,12,2,18,-30,1.00 ,1,1,1,3.840 ,,,,,
,12,2,19,-15,1.00 ,1,1,0,6.200 ,,,,,
,12,2,20,-15,0.80 ,1,1,1,8.170 ,,,,,
,12,2,21,15,0.80 ,1,1,0,5.630 ,,,,,
,12,2,22,-45,0.80 ,2,-1,0,4.150 ,,,,,
,12,2,23,0,1.00 ,1,1,0,3.770 ,,,,,
,12,2,24,30,1.20 ,1,1,0,3.740 ,,,,,
,12,2,25,15,1.00 ,1,1,0,3.790 ,,,,,
,12,2,26,-15,0.80 ,2,-1,0,3.810 ,,,,,
,12,2,27,-15,1.00 ,2,-1,0,3.840 ,,,,,
,12,2,28,-30,0.80 ,2,-1,1,4.110 ,,,,,
,12,2,29,15,1.20 ,2,-1,1,3.870 ,,,,,
,12,2,30,45,0.80 ,2,-1,1,4.550 ,,,,,
,12,2,31,-15,1.20 ,1,1,0,4.650 ,,,,,
,12,2,32,0,1.00 ,2,-1,0,4.660 ,,,,,
,12,2,33,-45,0.80 ,1,1,1,4.100 ,,,,,
,12,2,34,-45,1.00 ,2,-1,1,3.850 ,,,,,
,12,2,35,-45,1.20 ,2,-1,1,3.830 ,,,,,
,12,2,36,-30,1.20 ,2,-1,1,3.730 ,,,,,
,12,2,37,-30,0.80 ,1,1,1,4.020 ,,,,,
,12,2,38,15,1.00 ,2,-1,1,3.820 ,,,,,
,12,2,39,45,0.80 ,1,1,0,3.760 ,,,,,
,12,2,40,15,1.20 ,1,1,0,3.700 ,,,,,
,12,2,41,45,1.00 ,2,-1,0,3.670 ,,,,,
,12,2,42,30,0.80 ,2,-1,0,3.670 ,,,,,
,12,3,1,45,0.80 ,1,1,1,4.240 ,,,,,
,12,3,2,-15,1.20 ,2,-1,1,3.800 ,,,,,
,12,3,3,0,0.80 ,2,-1,1,3.790 ,,,,,
,12,3,4,-15,1.20 ,1,1,1,3.820 ,,,,,
,12,3,5,45,1.20 ,2,-1,0,5.580 ,,,,,
,12,3,6,15,1.00 ,1,1,0,3.860 ,,,,,
,12,3,7,0,1.20 ,1,1,0,3.620 ,,,,,
,12,3,8,30,0.80 ,2,-1,1,3.720 ,,,,,
,12,3,9,-15,0.80 ,2,-1,1,3.700 ,,,,,
,12,3,10,-45,1.20 ,1,1,1,7.480 ,,,,,
,12,3,11,45,1.00 ,2,-1,0,7.960 ,,,,,
,12,3,12,-30,1.00 ,2,-1,1,5.590 ,,,,,
,12,3,13,-15,1.00 ,2,-1,1,4.120 ,,,,,
,12,3,14,-30,0.80 ,1,1,0,5.880 ,,,,,
,12,3,15,-30,0.80 ,2,-1,0,3.970 ,,,,,
,12,3,16,0,1.00 ,2,-1,0,3.870 ,,,,,
,12,3,17,-45,1.00 ,2,-1,0,4.360 ,,,,,
,12,3,18,15,1.00 ,2,-1,0,5.260 ,,,,,
,12,3,19,0,1.00 ,1,1,0,5.980 ,,,,,
,12,3,20,-45,0.80 ,2,-1,1,5.770 ,,,,,
,12,3,21,30,1.20 ,2,-1,1,4.560 ,,,,,
,12,3,22,30,0.80 ,1,1,0,3.820 ,,,,,
,12,3,23,-30,1.20 ,1,1,0,4.190 ,,,,,
,12,3,24,-30,1.00 ,1,1,0,3.670 ,,,,,
,12,3,25,-45,1.00 ,1,1,1,5.930 ,,,,,
,12,3,26,-45,0.80 ,1,1,1,4.300 ,,,,,
,12,3,27,-30,1.20 ,2,-1,1,6.920 ,,,,,
,12,3,28,-15,0.80 ,1,1,0,7.510 ,,,,,
,12,3,29,-45,1.20 ,2,-1,0,4.970 ,,,,,
,12,3,30,0,0.80 ,1,1,0,4.610 ,,,,,
,12,3,31,45,1.00 ,1,1,1,6.710 ,,,,,
,12,3,32,15,0.80 ,2,-1,1,7.330 ,,,,,
,12,3,33,30,1.00 ,1,1,1,3.960 ,,,,,
,12,3,34,15,0.80 ,1,1,0,3.860 ,,,,,
,12,3,35,45,0.80 ,2,-1,1,3.700 ,,,,,
,12,3,36,0,1.20 ,2,-1,0,3.800 ,,,,,
,12,3,37,30,1.00 ,2,-1,0,3.790 ,,,,,
,12,3,38,30,1.20 ,1,1,0,4.330 ,,,,,
,12,3,39,15,1.20 ,2,-1,0,3.730 ,,,,,
,12,3,40,-15,1.00 ,1,1,1,8.020 ,,,,,
,12,3,41,45,1.20 ,1,1,0,3.820 ,,,,,
,12,3,42,15,1.20 ,1,1,0,4.790 ,,,,,
,13,1,1,-45,0.80 ,2,-1,0,4.500 ,,,,,
,13,1,2,-45,1.00 ,1,1,1,5.010 ,,,,,
,13,1,3,-30,1.20 ,1,1,1,5.590 ,,,,,
,13,1,4,-15,1.20 ,2,-1,0,4.520 ,,,,,
,13,1,5,-45,0.80 ,1,1,1,4.490 ,,,,,
,13,1,6,0,0.80 ,1,1,0,14.200 ,,,,,
,13,1,7,30,0.80 ,2,-1,0,5.580 ,,,,,
,13,1,8,-45,1.00 ,2,-1,0,4.370 ,,,,,
,13,1,9,0,1.00 ,1,1,0,5.560 ,,,,,
,13,1,10,0,0.80 ,2,-1,0,4.440 ,,,,,
,13,1,11,45,0.80 ,2,-1,0,4.700 ,,,,,
,13,1,12,-45,1.20 ,2,-1,0,4.840 ,,,,,
,13,1,13,45,1.00 ,1,1,0,14.000 ,,,,,
,13,1,14,30,1.20 ,1,1,0,5.680 ,,,,,
,13,1,15,15,0.80 ,1,1,0,4.550 ,,,,,
,13,1,16,15,1.00 ,1,1,0,8.520 ,,,,,
,13,1,17,-30,0.80 ,1,1,0,5.570 ,,,,,
,13,1,18,-15,1.20 ,1,1,0,5.840 ,,,,,
,13,1,19,30,0.80 ,1,1,0,4.600 ,,,,,
,13,1,20,-15,0.80 ,2,-1,1,12.100 ,,,,,
,13,1,21,45,1.20 ,2,-1,0,5.020 ,,,,,
,13,1,22,0,1.20 ,2,-1,1,5.050 ,,,,,
,13,1,23,30,1.20 ,2,-1,0,6.140 ,,,,,
,13,1,24,-15,1.00 ,2,-1,0,4.560 ,,,,,
,13,1,25,-15,1.00 ,1,1,1,5.420 ,,,,,
,13,1,26,-30,1.00 ,1,1,1,9.420 ,,,,,
,13,1,27,15,0.80 ,2,-1,0,4.550 ,,,,,
,13,1,28,-45,1.20 ,1,1,1,4.410 ,,,,,
,13,1,29,-30,0.80 ,2,-1,1,6.100 ,,,,,
,13,1,30,15,1.20 ,1,1,0,5.040 ,,,,,
,13,1,31,0,1.20 ,1,1,0,4.240 ,,,,,
,13,1,32,-30,1.20 ,2,-1,1,7.370 ,,,,,
,13,1,33,0,1.00 ,2,-1,0,4.300 ,,,,,
,13,1,34,30,1.00 ,2,-1,0,5.270 ,,,,,
,13,1,35,15,1.00 ,2,-1,0,3.960 ,,,,,
,13,1,36,-30,1.00 ,2,-1,0,4.750 ,,,,,
,13,1,37,30,1.00 ,1,1,0,4.330 ,,,,,
,13,1,38,45,1.20 ,1,1,1,5.430 ,,,,,
,13,1,39,45,1.00 ,2,-1,0,4.570 ,,,,,
,13,1,40,45,0.80 ,1,1,1,4.320 ,,,,,
,13,1,41,-15,0.80 ,1,1,1,6.270 ,,,,,
,13,1,42,15,1.20 ,2,-1,0,4.570 ,,,,,
,13,2,1,-45,0.80 ,1,1,0,4.620 ,,,,,
,13,2,2,15,1.20 ,1,1,0,4.610 ,,,,,
,13,2,3,30,0.80 ,2,-1,0,4.600 ,,,,,
,13,2,4,15,1.00 ,2,-1,0,4.140 ,,,,,
,13,2,5,15,0.80 ,2,-1,0,4.020 ,,,,,
,13,2,6,-45,1.20 ,2,-1,1,5.340 ,,,,,
,13,2,7,-45,1.20 ,1,1,1,4.410 ,,,,,
,13,2,8,45,0.80 ,1,1,0,4.920 ,,,,,
,13,2,9,30,1.00 ,1,1,0,4.000 ,,,,,
,13,2,10,0,0.80 ,1,1,0,4.120 ,,,,,
,13,2,11,-45,0.80 ,2,-1,1,4.220 ,,,,,
,13,2,12,0,0.80 ,2,-1,0,4.040 ,,,,,
,13,2,13,-15,1.20 ,1,1,1,4.270 ,,,,,
,13,2,14,-15,0.80 ,2,-1,1,3.760 ,,,,,
,13,2,15,45,1.20 ,1,1,0,3.720 ,,,,,
,13,2,16,15,1.20 ,2,-1,0,3.740 ,,,,,
,13,2,17,45,1.00 ,1,1,0,4.220 ,,,,,
,13,2,18,-45,1.00 ,1,1,1,3.820 ,,,,,
,13,2,19,-30,1.00 ,1,1,1,3.820 ,,,,,
,13,2,20,30,1.00 ,2,-1,0,5.220 ,,,,,
,13,2,21,-30,1.00 ,2,-1,1,3.810 ,,,,,
,13,2,22,0,1.20 ,1,1,1,4.370 ,,,,,
,13,2,23,30,0.80 ,1,1,0,4.200 ,,,,,
,13,2,24,45,0.80 ,2,-1,1,7.410 ,,,,,
,13,2,25,15,1.00 ,1,1,0,4.350 ,,,,,
,13,2,26,15,0.80 ,1,1,0,3.890 ,,,,,
,13,2,27,-45,1.00 ,2,-1,1,3.730 ,,,,,
,13,2,28,-30,1.20 ,1,1,1,3.720 ,,,,,
,13,2,29,-15,1.00 ,2,-1,1,3.820 ,,,,,
,13,2,30,-15,0.80 ,1,1,0,3.670 ,,,,,
,13,2,31,0,1.20 ,2,-1,0,3.720 ,,,,,
,13,2,32,-15,1.20 ,2,-1,0,3.670 ,,,,,
,13,2,33,-15,1.00 ,1,1,0,3.710 ,,,,,
,13,2,34,-30,0.80 ,2,-1,0,3.720 ,,,,,
,13,2,35,-30,1.20 ,2,-1,0,3.620 ,,,,,
,13,2,36,30,1.20 ,2,-1,0,4.080 ,,,,,
,13,2,37,30,1.20 ,1,1,0,3.790 ,,,,,
,13,2,38,-30,0.80 ,1,1,0,3.820 ,,,,,
,13,2,39,0,1.00 ,1,1,0,3.840 ,,,,,
,13,2,40,45,1.20 ,2,-1,0,3.690 ,,,,,
,13,2,41,0,1.00 ,2,-1,0,3.700 ,,,,,
,13,2,42,45,1.00 ,2,-1,0,3.450 ,,,,,
,13,3,1,30,0.80 ,1,1,0,3.520 ,,,,,
,13,3,2,-30,1.00 ,1,1,0,3.850 ,,,,,
,13,3,3,0,0.80 ,1,1,0,3.420 ,,,,,
,13,3,4,-30,0.80 ,1,1,0,4.060 ,,,,,
,13,3,5,30,0.80 ,2,-1,0,3.480 ,,,,,
,13,3,6,45,1.00 ,2,-1,0,3.670 ,,,,,
,13,3,7,15,0.80 ,2,-1,0,3.720 ,,,,,
,13,3,8,-45,1.00 ,1,1,1,4.420 ,,,,,
,13,3,9,30,1.20 ,2,-1,0,3.670 ,,,,,
,13,3,10,45,0.80 ,2,-1,0,3.680 ,,,,,
,13,3,11,15,1.20 ,1,1,0,3.740 ,,,,,
,13,3,12,-30,1.00 ,2,-1,0,3.620 ,,,,,
,13,3,13,15,0.80 ,1,1,0,3.660 ,,,,,
,13,3,14,-15,0.80 ,1,1,0,3.670 ,,,,,
,13,3,15,30,1.00 ,1,1,0,3.750 ,,,,,
,13,3,16,0,0.80 ,2,-1,0,3.690 ,,,,,
,13,3,17,-30,1.20 ,1,1,1,4.770 ,,,,,
,13,3,18,-45,1.20 ,1,1,0,4.880 ,,,,,
,13,3,19,15,1.00 ,1,1,0,3.670 ,,,,,
,13,3,20,30,1.20 ,1,1,0,3.910 ,,,,,
,13,3,21,30,1.00 ,2,-1,0,3.860 ,,,,,
,13,3,22,45,0.80 ,1,1,0,3.770 ,,,,,
,13,3,23,-45,0.80 ,1,1,1,4.240 ,,,,,
,13,3,24,15,1.20 ,2,-1,0,3.850 ,,,,,
,13,3,25,-15,1.00 ,2,-1,0,4.750 ,,,,,
,13,3,26,-15,1.20 ,2,-1,1,3.700 ,,,,,
,13,3,27,0,1.20 ,2,-1,1,3.690 ,,,,,
,13,3,28,0,1.00 ,1,1,1,3.560 ,,,,,
,13,3,29,-15,1.20 ,1,1,1,3.480 ,,,,,
,13,3,30,-30,0.80 ,2,-1,1,3.570 ,,,,,
,13,3,31,45,1.20 ,1,1,1,3.990 ,,,,,
,13,3,32,0,1.00 ,2,-1,1,3.780 ,,,,,
,13,3,33,-45,0.80 ,2,-1,1,3.590 ,,,,,
,13,3,34,45,1.20 ,2,-1,0,3.970 ,,,,,
,13,3,35,-15,0.80 ,2,-1,1,3.880 ,,,,,
,13,3,36,0,1.20 ,1,1,1,3.760 ,,,,,
,13,3,37,45,1.00 ,1,1,0,3.600 ,,,,,
,13,3,38,-30,1.20 ,2,-1,1,3.780 ,,,,,
,13,3,39,15,1.00 ,2,-1,1,3.740 ,,,,,
,13,3,40,-45,1.20 ,2,-1,1,3.730 ,,,,,
,13,3,41,-45,1.00 ,2,-1,1,3.690 ,,,,,
,13,3,42,-15,1.00 ,1,1,1,3.640 ,,,,,
,14,1,1,-45,0.80 ,1,1,1,4.290 ,,,,,
,14,1,2,15,1.20 ,1,1,0,14.600 ,,,,,
,14,1,3,30,1.20 ,2,-1,1,4.450 ,,,,,
,14,1,4,-30,0.80 ,2,-1,1,3.970 ,,,,,
,14,1,5,-15,1.00 ,2,-1,1,4.290 ,,,,,
,14,1,6,-15,1.00 ,1,1,0,3.990 ,,,,,
,14,1,7,-15,0.80 ,2,-1,0,8.080 ,,,,,
,14,1,8,-45,0.80 ,2,-1,1,7.300 ,,,,,
,14,1,9,-15,0.80 ,1,1,0,7.200 ,,,,,
,14,1,10,-45,1.00 ,1,1,1,5.130 ,,,,,
,14,1,11,0,1.00 ,1,1,1,6.050 ,,,,,
,14,1,12,0,1.20 ,1,1,1,4.030 ,,,,,
,14,1,13,-15,1.20 ,2,-1,1,4.050 ,,,,,
,14,1,14,0,0.80 ,2,-1,0,8.740 ,,,,,
,14,1,15,15,0.80 ,2,-1,0,4.260 ,,,,,
,14,1,16,-30,1.00 ,1,1,1,4.130 ,,,,,
,14,1,17,-30,0.80 ,1,1,1,4.050 ,,,,,
,14,1,18,0,0.80 ,1,1,1,4.100 ,,,,,
,14,1,19,0,1.20 ,2,-1,0,4.110 ,,,,,
,14,1,20,30,1.00 ,2,-1,0,3.890 ,,,,,
,14,1,21,0,1.00 ,2,-1,0,4.110 ,,,,,
,14,1,22,45,1.20 ,2,-1,0,3.950 ,,,,,
,14,1,23,30,1.20 ,1,1,1,4.060 ,,,,,
,14,1,24,15,0.80 ,1,1,1,3.900 ,,,,,
,14,1,25,45,1.20 ,1,1,1,4.370 ,,,,,
,14,1,26,45,0.80 ,1,1,1,4.010 ,,,,,
,14,1,27,15,1.00 ,1,1,1,3.980 ,,,,,
,14,1,28,45,1.00 ,1,1,1,3.990 ,,,,,
,14,1,29,45,0.80 ,2,-1,0,3.960 ,,,,,
,14,1,30,45,1.00 ,2,-1,0,3.850 ,,,,,
,14,1,31,-45,1.00 ,2,-1,0,3.970 ,,,,,
,14,1,32,-30,1.00 ,2,-1,0,3.700 ,,,,,
,14,1,33,-30,1.20 ,1,1,1,4.560 ,,,,,
,14,1,34,-15,1.20 ,1,1,1,3.920 ,,,,,
,14,1,35,-45,1.20 ,1,1,1,4.130 ,,,,,
,14,1,36,-30,1.20 ,2,-1,0,3.860 ,,,,,
,14,1,37,-45,1.20 ,2,-1,0,3.910 ,,,,,
,14,1,38,15,1.00 ,2,-1,0,3.980 ,,,,,
,14,1,39,30,1.00 ,1,1,1,4.530 ,,,,,
,14,1,40,30,0.80 ,2,-1,0,4.010 ,,,,,
,14,1,41,15,1.20 ,2,-1,0,3.710 ,,,,,
,14,1,42,30,0.80 ,1,1,1,5.340 ,,,,,
,14,2,1,-15,1.20 ,1,1,1,4.260 ,,,,,
,14,2,2,-45,1.00 ,2,-1,0,3.990 ,,,,,
,14,2,3,0,0.80 ,1,1,1,4.000 ,,,,,
,14,2,4,45,0.80 ,1,1,1,3.610 ,,,,,
,14,2,5,-45,0.80 ,2,-1,0,3.990 ,,,,,
,14,2,6,0,0.80 ,2,-1,0,3.680 ,,,,,
,14,2,7,-15,1.00 ,1,1,1,3.760 ,,,,,
,14,2,8,-45,0.80 ,1,1,1,3.710 ,,,,,
,14,2,9,45,1.20 ,1,1,1,4.070 ,,,,,
,14,2,10,-15,0.80 ,2,-1,0,3.630 ,,,,,
,14,2,11,-15,0.80 ,1,1,1,4.630 ,,,,,
,14,2,12,-30,0.80 ,2,-1,0,3.660 ,,,,,
,14,2,13,30,1.00 ,1,1,1,4.180 ,,,,,
,14,2,14,0,1.20 ,2,-1,0,5.080 ,,,,,
,14,2,15,45,1.20 ,2,-1,0,4.080 ,,,,,
,14,2,16,-30,1.00 ,2,-1,0,3.900 ,,,,,
,14,2,17,15,1.00 ,1,1,1,4.010 ,,,,,
,14,2,18,15,1.20 ,1,1,1,4.620 ,,,,,
,14,2,19,0,1.00 ,1,1,1,4.300 ,,,,,
,14,2,20,45,1.00 ,1,1,1,4.650 ,,,,,
,14,2,21,30,1.00 ,2,-1,0,4.530 ,,,,,
,14,2,22,45,0.80 ,2,-1,0,3.600 ,,,,,
,14,2,23,-15,1.20 ,2,-1,0,4.700 ,,,,,
,14,2,24,-45,1.00 ,1,1,1,4.140 ,,,,,
,14,2,25,-30,0.80 ,1,1,1,4.150 ,,,,,
,14,2,26,30,0.80 ,2,-1,0,3.620 ,,,,,
,14,2,27,30,1.20 ,2,-1,0,3.630 ,,,,,
,14,2,28,-45,1.20 ,2,-1,0,4.450 ,,,,,
,14,2,29,45,1.00 ,2,-1,0,4.000 ,,,,,
,14,2,30,30,0.80 ,1,1,1,4.290 ,,,,,
,14,2,31,15,1.00 ,2,-1,0,5.050 ,,,,,
,14,2,32,0,1.00 ,2,-1,0,3.980 ,,,,,
,14,2,33,30,1.20 ,1,1,1,4.430 ,,,,,
,14,2,34,15,0.80 ,1,1,1,4.300 ,,,,,
,14,2,35,-30,1.20 ,2,-1,0,3.660 ,,,,,
,14,2,36,-30,1.20 ,1,1,1,5.750 ,,,,,
,14,2,37,-15,1.00 ,2,-1,0,3.880 ,,,,,
,14,2,38,15,0.80 ,2,-1,0,4.480 ,,,,,
,14,2,39,0,1.20 ,1,1,1,4.850 ,,,,,
,14,2,40,-45,1.20 ,1,1,1,3.990 ,,,,,
,14,2,41,15,1.20 ,2,-1,0,3.780 ,,,,,
,14,2,42,-30,1.00 ,1,1,1,4.020 ,,,,,
,14,3,1,-30,1.00 ,1,1,1,4.200 ,,,,,
,14,3,2,45,1.00 ,2,-1,0,3.640 ,,,,,
,14,3,3,45,1.20 ,1,1,1,3.670 ,,,,,
,14,3,4,30,1.00 ,1,1,1,3.630 ,,,,,
,14,3,5,0,1.00 ,1,1,1,3.680 ,,,,,
,14,3,6,15,1.00 ,1,1,1,3.790 ,,,,,
,14,3,7,0,1.20 ,1,1,1,3.840 ,,,,,
,14,3,8,-45,1.20 ,2,-1,0,3.660 ,,,,,
,14,3,9,-45,1.00 ,2,-1,0,3.950 ,,,,,
,14,3,10,-45,1.20 ,1,1,1,4.700 ,,,,,
,14,3,11,0,1.20 ,2,-1,0,7.110 ,,,,,
,14,3,12,30,0.80 ,2,-1,0,5.680 ,,,,,
,14,3,13,45,1.20 ,2,-1,0,5.650 ,,,,,
,14,3,14,-15,1.00 ,1,1,1,4.330 ,,,,,
,14,3,15,0,0.80 ,2,-1,0,3.890 ,,,,,
,14,3,16,0,1.00 ,2,-1,0,3.630 ,,,,,
,14,3,17,0,0.80 ,1,1,1,4.030 ,,,,,
,14,3,18,30,1.00 ,2,-1,0,3.620 ,,,,,
,14,3,19,15,1.00 ,2,-1,0,3.600 ,,,,,
,14,3,20,-15,1.20 ,1,1,1,4.990 ,,,,,
,14,3,21,15,0.80 ,2,-1,0,5.930 ,,,,,
,14,3,22,15,0.80 ,1,1,1,4.360 ,,,,,
,14,3,23,-30,1.20 ,2,-1,0,3.670 ,,,,,
,14,3,24,45,0.80 ,1,1,1,3.930 ,,,,,
,14,3,25,45,1.00 ,1,1,1,3.890 ,,,,,
,14,3,26,-45,0.80 ,2,-1,0,3.600 ,,,,,
,14,3,27,-30,1.00 ,2,-1,0,3.730 ,,,,,
,14,3,28,30,1.20 ,2,-1,0,3.650 ,,,,,
,14,3,29,-15,1.20 ,2,-1,0,3.610 ,,,,,
,14,3,30,15,1.20 ,1,1,1,4.020 ,,,,,
,14,3,31,30,0.80 ,1,1,1,4.510 ,,,,,
,14,3,32,45,0.80 ,2,-1,0,3.620 ,,,,,
,14,3,33,-30,0.80 ,2,-1,0,3.650 ,,,,,
,14,3,34,-15,1.00 ,2,-1,0,3.850 ,,,,,
,14,3,35,-30,1.20 ,1,1,1,3.660 ,,,,,
,14,3,36,-15,0.80 ,2,-1,0,4.000 ,,,,,
,14,3,37,15,1.20 ,2,-1,0,4.210 ,,,,,
,14,3,38,-30,0.80 ,1,1,1,3.910 ,,,,,
,14,3,39,-45,1.00 ,1,1,1,4.070 ,,,,,
,14,3,40,30,1.20 ,1,1,1,3.850 ,,,,,
,14,3,41,-15,0.80 ,1,1,1,4.110 ,,,,,
,14,3,42,-45,0.80 ,1,1,1,3.610 ,,,,,
,15,1,1,-15,1.20 ,1,1,0,4.870 ,,,,,
,15,1,2,30,0.80 ,1,1,0,3.830 ,,,,,
,15,1,3,15,0.80 ,1,1,0,3.860 ,,,,,
,15,1,4,45,0.80 ,2,-1,0,4.200 ,,,,,
,15,1,5,-45,0.80 ,1,1,1,3.370 ,,,,,
,15,1,6,0,1.20 ,2,-1,0,4.220 ,,,,,
,15,1,7,45,1.00 ,2,-1,0,4.930 ,,,,,
,15,1,8,-30,0.80 ,1,1,1,4.110 ,,,,,
,15,1,9,-15,0.80 ,1,1,1,10.600 ,,,,,
,15,1,10,-45,0.80 ,2,-1,0,3.700 ,,,,,
,15,1,11,15,0.80 ,2,-1,0,4.090 ,,,,,
,15,1,12,15,1.20 ,2,-1,0,3.740 ,,,,,
,15,1,13,0,1.00 ,2,-1,0,3.850 ,,,,,
,15,1,14,-15,1.20 ,2,-1,0,3.780 ,,,,,
,15,1,15,0,0.80 ,2,-1,0,3.860 ,,,,,
,15,1,16,-30,1.00 ,2,-1,1,4.360 ,,,,,
,15,1,17,45,1.00 ,1,1,1,4.070 ,,,,,
,15,1,18,30,1.00 ,2,-1,0,3.670 ,,,,,
,15,1,19,30,1.00 ,1,1,0,3.380 ,,,,,
,15,1,20,45,1.20 ,1,1,0,3.580 ,,,,,
,15,1,21,-45,1.00 ,1,1,1,3.390 ,,,,,
,15,1,22,-15,1.00 ,1,1,1,3.710 ,,,,,
,15,1,23,15,1.00 ,2,-1,0,3.970 ,,,,,
,15,1,24,-15,1.00 ,2,-1,0,3.690 ,,,,,
,15,1,25,30,1.20 ,1,1,0,4.000 ,,,,,
,15,1,26,0,1.20 ,1,1,0,3.590 ,,,,,
,15,1,27,30,0.80 ,2,-1,0,3.540 ,,,,,
,15,1,28,15,1.00 ,1,1,0,3.370 ,,,,,
,15,1,29,-30,1.00 ,1,1,1,6.270 ,,,,,
,15,1,30,45,1.20 ,2,-1,0,4.450 ,,,,,
,15,1,31,-15,0.80 ,2,-1,1,4.020 ,,,,,
,15,1,32,-45,1.00 ,2,-1,1,3.690 ,,,,,
,15,1,33,-30,1.20 ,2,-1,1,3.560 ,,,,,
,15,1,34,0,1.00 ,1,1,0,5.420 ,,,,,
,15,1,35,15,1.20 ,1,1,1,3.880 ,,,,,
,15,1,36,-45,1.20 ,1,1,1,3.420 ,,,,,
,15,1,37,30,1.20 ,2,-1,1,3.370 ,,,,,
,15,1,38,-45,1.20 ,2,-1,1,3.770 ,,,,,
,15,1,39,0,0.80 ,1,1,0,3.730 ,,,,,
,15,1,40,-30,0.80 ,2,-1,1,4.410 ,,,,,
,15,1,41,-30,1.20 ,1,1,1,3.600 ,,,,,
,15,1,42,45,0.80 ,1,1,0,4.340 ,,,,,
,15,2,1,0,0.80 ,1,1,0,6.440 ,,,,,
,15,2,2,0,0.80 ,2,-1,0,3.380 ,,,,,
,15,2,3,-30,0.80 ,1,1,1,4.580 ,,,,,
,15,2,4,45,1.00 ,2,-1,0,3.400 ,,,,,
,15,2,5,15,1.20 ,1,1,0,3.730 ,,,,,
,15,2,6,15,1.00 ,1,1,0,3.590 ,,,,,
,15,2,7,30,1.20 ,2,-1,0,3.790 ,,,,,
,15,2,8,15,1.20 ,2,-1,0,3.620 ,,,,,
,15,2,9,-15,0.80 ,2,-1,1,4.000 ,,,,,
,15,2,10,45,1.00 ,1,1,0,4.330 ,,,,,
,15,2,11,-45,1.00 ,1,1,1,3.620 ,,,,,
,15,2,12,-30,1.00 ,1,1,1,3.720 ,,,,,
,15,2,13,15,1.00 ,2,-1,0,3.640 ,,,,,
,15,2,14,30,0.80 ,1,1,0,6.240 ,,,,,
,15,2,15,30,1.00 ,1,1,0,3.700 ,,,,,
,15,2,16,-30,1.00 ,2,-1,1,3.630 ,,,,,
,15,2,17,-45,0.80 ,1,1,1,3.630 ,,,,,
,15,2,18,-45,1.20 ,1,1,1,4.580 ,,,,,
,15,2,19,30,0.80 ,2,-1,0,3.680 ,,,,,
,15,2,20,-15,1.20 ,2,-1,0,3.630 ,,,,,
,15,2,21,45,1.20 ,1,1,0,5.420 ,,,,,
,15,2,22,-15,0.80 ,1,1,1,3.590 ,,,,,
,15,2,23,-30,1.20 ,2,-1,1,3.630 ,,,,,
,15,2,24,0,1.20 ,2,-1,0,3.840 ,,,,,
,15,2,25,0,1.00 ,2,-1,0,3.610 ,,,,,
,15,2,26,-15,1.00 ,1,1,1,4.540 ,,,,,
,15,2,27,-15,1.00 ,2,-1,1,4.170 ,,,,,
,15,2,28,30,1.20 ,1,1,0,3.670 ,,,,,
,15,2,29,0,1.20 ,1,1,0,3.420 ,,,,,
,15,2,30,45,0.80 ,2,-1,0,3.870 ,,,,,
,15,2,31,15,0.80 ,1,1,1,3.370 ,,,,,
,15,2,32,-30,0.80 ,2,-1,0,4.750 ,,,,,
,15,2,33,-45,0.80 ,2,-1,1,3.620 ,,,,,
,15,2,34,30,1.00 ,2,-1,0,3.800 ,,,,,
,15,2,35,-30,1.20 ,1,1,1,3.730 ,,,,,
,15,2,36,-45,1.00 ,2,-1,1,3.990 ,,,,,
,15,2,37,45,0.80 ,1,1,1,4.410 ,,,,,
,15,2,38,45,1.20 ,2,-1,0,3.450 ,,,,,
,15,2,39,-15,1.20 ,1,1,1,3.490 ,,,,,
,15,2,40,15,0.80 ,2,-1,0,3.620 ,,,,,
,15,2,41,-45,1.20 ,2,-1,1,3.400 ,,,,,
,15,2,42,0,1.00 ,1,1,0,3.370 ,,,,,
,15,3,1,-15,1.00 ,1,1,1,3.730 ,,,,,
,15,3,2,-15,1.20 ,2,-1,1,3.840 ,,,,,
,15,3,3,0,0.80 ,1,1,0,3.620 ,,,,,
,15,3,4,-15,1.20 ,1,1,1,3.520 ,,,,,
,15,3,5,30,1.00 ,2,-1,0,3.380 ,,,,,
,15,3,6,-15,0.80 ,1,1,1,3.650 ,,,,,
,15,3,7,15,0.80 ,2,-1,1,3.640 ,,,,,
,15,3,8,45,1.00 ,1,1,0,3.600 ,,,,,
,15,3,9,30,0.80 ,1,1,0,4.000 ,,,,,
,15,3,10,-15,0.80 ,2,-1,0,4.650 ,,,,,
,15,3,11,30,1.20 ,2,-1,0,3.720 ,,,,,
,15,3,12,-30,1.20 ,2,-1,1,3.730 ,,,,,
,15,3,13,45,1.20 ,1,1,0,3.580 ,,,,,
,15,3,14,0,1.20 ,2,-1,0,3.570 ,,,,,
,15,3,15,45,0.80 ,1,1,0,3.400 ,,,,,
,15,3,16,-30,0.80 ,1,1,1,3.950 ,,,,,
,15,3,17,15,1.20 ,2,-1,0,3.570 ,,,,,
,15,3,18,15,0.80 ,1,1,0,3.910 ,,,,,
,15,3,19,-45,0.80 ,1,1,1,3.390 ,,,,,
,15,3,20,-45,0.80 ,2,-1,0,4.080 ,,,,,
,15,3,21,-45,1.00 ,2,-1,1,3.590 ,,,,,
,15,3,22,0,0.80 ,2,-1,0,3.660 ,,,,,
,15,3,23,30,0.80 ,2,-1,0,3.410 ,,,,,
,15,3,24,45,1.20 ,2,-1,0,3.900 ,,,,,
,15,3,25,0,1.00 ,2,-1,0,3.580 ,,,,,
,15,3,26,15,1.20 ,1,1,0,3.420 ,,,,,
,15,3,27,45,0.80 ,2,-1,0,3.370 ,,,,,
,15,3,28,0,1.20 ,1,1,0,3.470 ,,,,,
,15,3,29,-45,1.20 ,1,1,1,3.510 ,,,,,
,15,3,30,15,1.00 ,2,-1,0,3.640 ,,,,,
,15,3,31,-30,1.00 ,1,1,1,3.790 ,,,,,
,15,3,32,-30,1.00 ,2,-1,1,3.550 ,,,,,
,15,3,33,-30,1.20 ,1,1,1,3.850 ,,,,,
,15,3,34,45,1.00 ,2,-1,0,3.720 ,,,,,
,15,3,35,30,1.00 ,1,1,1,3.540 ,,,,,
,15,3,36,-45,1.00 ,1,1,1,3.840 ,,,,,
,15,3,37,-30,0.80 ,2,-1,1,3.570 ,,,,,
,15,3,38,-15,1.00 ,2,-1,0,3.560 ,,,,,
,15,3,39,15,1.00 ,1,1,0,3.710 ,,,,,
,15,3,40,-45,1.20 ,2,-1,1,3.600 ,,,,,
,15,3,41,30,1.20 ,1,1,0,3.740 ,,,,,
,15,3,42,0,1.00 ,1,1,0,3.640 ,,,,,
