subNum, blockNum, trialNum, curvature, width,occludedHalf, startSide, response, RT,,,,,
1,1,1,-15,1.20 ,1,1,0,5.990 ,,,,,
1,1,2,30,0.80 ,1,1,1,4.520 ,,,,,
1,1,3,15,0.80 ,1,1,0,4.620 ,,,,,
1,1,4,45,0.80 ,2,-1,1,4.240 ,,,,,
1,1,5,-45,0.80 ,1,1,0,4.300 ,,,,,
1,1,6,0,1.20 ,2,-1,0,3.740 ,,,,,
1,1,7,45,1.00 ,2,-1,1,4.250 ,,,,,
1,1,8,-30,0.80 ,1,1,0,4.590 ,,,,,
1,1,9,-15,0.80 ,1,1,1,4.880 ,,,,,
1,1,10,-45,0.80 ,2,-1,1,4.780 ,,,,,
1,1,11,15,0.80 ,2,-1,1,4.160 ,,,,,
1,1,12,15,1.20 ,2,-1,1,5.180 ,,,,,
1,1,13,0,1.00 ,2,-1,1,4.370 ,,,,,
1,1,14,-15,1.20 ,2,-1,1,4.550 ,,,,,
1,1,15,0,0.80 ,2,-1,0,4.430 ,,,,,
1,1,16,-30,1.00 ,2,-1,0,5.480 ,,,,,
1,1,17,45,1.00 ,1,1,1,3.660 ,,,,,
1,1,18,30,1.00 ,2,-1,1,4.110 ,,,,,
1,1,19,30,1.00 ,1,1,1,3.750 ,,,,,
1,1,20,45,1.20 ,1,1,0,3.950 ,,,,,
1,1,21,-45,1.00 ,1,1,0,4.330 ,,,,,
1,1,22,-15,1.00 ,1,1,1,5.500 ,,,,,
1,1,23,15,1.00 ,2,-1,1,3.620 ,,,,,
1,1,24,-15,1.00 ,2,-1,1,5.030 ,,,,,
1,1,25,30,1.20 ,1,1,1,3.600 ,,,,,
1,1,26,0,1.20 ,1,1,1,4.380 ,,,,,
1,1,27,30,0.80 ,2,-1,1,3.770 ,,,,,
1,1,28,15,1.00 ,1,1,1,4.040 ,,,,,
1,1,29,-30,1.00 ,1,1,1,3.990 ,,,,,
1,1,30,45,1.20 ,2,-1,1,3.640 ,,,,,
1,1,31,-15,0.80 ,2,-1,0,5.140 ,,,,,
1,1,32,-45,1.00 ,2,-1,1,16.200 ,,,,,
1,1,33,-30,1.20 ,2,-1,1,4.140 ,,,,,
1,1,34,0,1.00 ,1,1,0,4.140 ,,,,,
1,1,35,15,1.20 ,1,1,1,6.250 ,,,,,
1,1,36,-45,1.20 ,1,1,1,4.130 ,,,,,
1,1,37,30,1.20 ,2,-1,1,4.750 ,,,,,
1,1,38,-45,1.20 ,2,-1,1,4.120 ,,,,,
1,1,39,0,0.80 ,1,1,0,5.100 ,,,,,
1,1,40,-30,0.80 ,2,-1,1,4.190 ,,,,,
1,1,41,-30,1.20 ,1,1,1,4.130 ,,,,,
1,1,42,45,0.80 ,1,1,1,4.270 ,,,,,
1,2,1,0,0.80 ,1,1,0,4.800 ,,,,,
1,2,2,0,0.80 ,2,-1,0,4.280 ,,,,,
1,2,3,-30,0.80 ,1,1,0,4.970 ,,,,,
1,2,4,45,1.00 ,2,-1,1,4.130 ,,,,,
1,2,5,15,1.20 ,1,1,1,4.710 ,,,,,
1,2,6,15,1.00 ,1,1,0,4.470 ,,,,,
1,2,7,30,1.20 ,2,-1,0,3.970 ,,,,,
1,2,8,15,1.20 ,2,-1,1,5.290 ,,,,,
1,2,9,-15,0.80 ,2,-1,1,5.980 ,,,,,
1,2,10,45,1.00 ,1,1,1,4.290 ,,,,,
1,2,11,-45,1.00 ,1,1,0,4.640 ,,,,,
1,2,12,-30,1.00 ,1,1,0,4.800 ,,,,,
1,2,13,15,1.00 ,2,-1,1,3.590 ,,,,,
1,2,14,30,0.80 ,1,1,1,4.180 ,,,,,
1,2,15,30,1.00 ,1,1,0,4.300 ,,,,,
1,2,16,-30,1.00 ,2,-1,1,3.780 ,,,,,
1,2,17,-45,0.80 ,1,1,1,4.120 ,,,,,
1,2,18,-45,1.20 ,1,1,0,4.020 ,,,,,
1,2,19,30,0.80 ,2,-1,1,3.700 ,,,,,
1,2,20,-15,1.20 ,2,-1,1,3.450 ,,,,,
1,2,21,45,1.20 ,1,1,0,3.770 ,,,,,
1,2,22,-15,0.80 ,1,1,0,4.530 ,,,,,
1,2,23,-30,1.20 ,2,-1,1,3.960 ,,,,,
1,2,24,0,1.20 ,2,-1,1,4.100 ,,,,,
1,2,25,0,1.00 ,2,-1,1,3.700 ,,,,,
1,2,26,-15,1.00 ,1,1,0,3.680 ,,,,,
1,2,27,-15,1.00 ,2,-1,1,3.490 ,,,,,
1,2,28,30,1.20 ,1,1,0,4.880 ,,,,,
1,2,29,0,1.20 ,1,1,0,4.260 ,,,,,
1,2,30,45,0.80 ,2,-1,1,4.000 ,,,,,
1,2,31,15,0.80 ,1,1,1,4.140 ,,,,,
1,2,32,-30,0.80 ,2,-1,1,3.610 ,,,,,
1,2,33,-45,0.80 ,2,-1,1,3.500 ,,,,,
1,2,34,30,1.00 ,2,-1,1,3.670 ,,,,,
1,2,35,-30,1.20 ,1,1,1,4.020 ,,,,,
1,2,36,-45,1.00 ,2,-1,1,3.650 ,,,,,
1,2,37,45,0.80 ,1,1,1,4.600 ,,,,,
1,2,38,45,1.20 ,2,-1,0,3.630 ,,,,,
1,2,39,-15,1.20 ,1,1,0,4.140 ,,,,,
1,2,40,15,0.80 ,2,-1,1,3.580 ,,,,,
1,2,41,-45,1.20 ,2,-1,1,4.400 ,,,,,
1,2,42,0,1.00 ,1,1,1,4.620 ,,,,,
1,3,1,-15,1.00 ,1,1,0,4.180 ,,,,,
1,3,2,-15,1.20 ,2,-1,0,3.780 ,,,,,
1,3,3,0,0.80 ,1,1,0,3.920 ,,,,,
1,3,4,-15,1.20 ,1,1,0,3.970 ,,,,,
1,3,5,30,1.00 ,2,-1,1,4.440 ,,,,,
1,3,6,-15,0.80 ,1,1,1,3.590 ,,,,,
1,3,7,15,0.80 ,2,-1,1,3.360 ,,,,,
1,3,8,45,1.00 ,1,1,0,3.620 ,,,,,
1,3,9,30,0.80 ,1,1,0,4.420 ,,,,,
1,3,10,-15,0.80 ,2,-1,1,3.980 ,,,,,
1,3,11,30,1.20 ,2,-1,1,4.040 ,,,,,
1,3,12,-30,1.20 ,2,-1,1,3.630 ,,,,,
1,3,13,45,1.20 ,1,1,0,4.060 ,,,,,
1,3,14,0,1.20 ,2,-1,0,4.490 ,,,,,
1,3,15,45,0.80 ,1,1,1,4.720 ,,,,,
1,3,16,-30,0.80 ,1,1,1,4.120 ,,,,,
1,3,17,15,1.20 ,2,-1,1,3.370 ,,,,,
1,3,18,15,0.80 ,1,1,0,3.650 ,,,,,
1,3,19,-45,0.80 ,1,1,1,3.640 ,,,,,
1,3,20,-45,0.80 ,2,-1,1,3.930 ,,,,,
1,3,21,-45,1.00 ,2,-1,1,3.930 ,,,,,
1,3,22,0,0.80 ,2,-1,1,3.620 ,,,,,
1,3,23,30,0.80 ,2,-1,1,3.690 ,,,,,
1,3,24,45,1.20 ,2,-1,1,3.690 ,,,,,
1,3,25,0,1.00 ,2,-1,1,3.600 ,,,,,
1,3,26,15,1.20 ,1,1,0,3.920 ,,,,,
1,3,27,45,0.80 ,2,-1,1,3.590 ,,,,,
1,3,28,0,1.20 ,1,1,0,5.170 ,,,,,
1,3,29,-45,1.20 ,1,1,1,3.830 ,,,,,
1,3,30,15,1.00 ,2,-1,1,5.380 ,,,,,
1,3,31,-30,1.00 ,1,1,1,4.050 ,,,,,
1,3,32,-30,1.00 ,2,-1,1,3.460 ,,,,,
1,3,33,-30,1.20 ,1,1,1,3.620 ,,,,,
1,3,34,45,1.00 ,2,-1,0,5.800 ,,,,,
1,3,35,30,1.00 ,1,1,0,8.060 ,,,,,
1,3,36,-45,1.00 ,1,1,1,3.650 ,,,,,
1,3,37,-30,0.80 ,2,-1,1,3.610 ,,,,,
1,3,38,-15,1.00 ,2,-1,1,3.540 ,,,,,
1,3,39,15,1.00 ,1,1,0,4.030 ,,,,,
1,3,40,-45,1.20 ,2,-1,1,3.430 ,,,,,
1,3,41,30,1.20 ,1,1,1,3.830 ,,,,,
1,3,42,0,1.00 ,1,1,0,4.810 ,,,,,
2,1,1,-15,0.80 ,1,1,1,5.270 ,,,,,
2,1,2,-15,1.20 ,2,-1,1,3.940 ,,,,,
2,1,3,0,0.80 ,1,1,1,3.890 ,,,,,
2,1,4,30,1.20 ,1,1,1,3.920 ,,,,,
2,1,5,-15,0.80 ,2,-1,1,3.840 ,,,,,
2,1,6,30,1.00 ,1,1,1,3.910 ,,,,,
2,1,7,0,1.20 ,2,-1,1,4.020 ,,,,,
2,1,8,30,0.80 ,2,-1,1,3.740 ,,,,,
2,1,9,45,1.20 ,1,1,1,3.870 ,,,,,
2,1,10,-30,1.20 ,2,-1,1,3.360 ,,,,,
2,1,11,45,1.00 ,2,-1,1,3.730 ,,,,,
2,1,12,-45,0.80 ,1,1,1,4.010 ,,,,,
2,1,13,15,0.80 ,2,-1,1,3.820 ,,,,,
2,1,14,-45,1.00 ,1,1,1,3.800 ,,,,,
2,1,15,30,1.00 ,2,-1,1,3.720 ,,,,,
2,1,16,-15,1.00 ,2,-1,1,6.940 ,,,,,
2,1,17,30,1.20 ,2,-1,1,3.930 ,,,,,
2,1,18,45,0.80 ,2,-1,1,3.460 ,,,,,
2,1,19,-30,1.20 ,1,1,1,3.840 ,,,,,
2,1,20,15,1.00 ,1,1,1,3.700 ,,,,,
2,1,21,-30,1.00 ,1,1,1,3.620 ,,,,,
2,1,22,0,1.00 ,2,-1,0,3.770 ,,,,,
2,1,23,15,1.20 ,2,-1,0,3.780 ,,,,,
2,1,24,45,0.80 ,1,1,1,3.760 ,,,,,
2,1,25,15,1.00 ,2,-1,0,3.720 ,,,,,
2,1,26,0,1.20 ,1,1,1,3.640 ,,,,,
2,1,27,-30,0.80 ,2,-1,0,3.630 ,,,,,
2,1,28,45,1.00 ,1,1,1,3.650 ,,,,,
2,1,29,-30,1.00 ,2,-1,0,3.690 ,,,,,
2,1,30,-15,1.20 ,1,1,1,3.700 ,,,,,
2,1,31,-15,1.00 ,1,1,1,3.570 ,,,,,
2,1,32,-45,1.20 ,1,1,1,3.660 ,,,,,
2,1,33,15,1.20 ,1,1,1,3.730 ,,,,,
2,1,34,-45,0.80 ,2,-1,0,3.410 ,,,,,
2,1,35,0,1.00 ,1,1,1,3.790 ,,,,,
2,1,36,-45,1.20 ,2,-1,0,3.770 ,,,,,
2,1,37,-45,1.00 ,2,-1,0,3.660 ,,,,,
2,1,38,15,0.80 ,1,1,1,3.660 ,,,,,
2,1,39,0,0.80 ,2,-1,0,3.690 ,,,,,
2,1,40,45,1.20 ,2,-1,0,3.640 ,,,,,
2,1,41,-30,0.80 ,1,1,1,3.610 ,,,,,
2,1,42,30,0.80 ,1,1,1,3.900 ,,,,,
2,2,1,30,0.80 ,1,1,1,3.930 ,,,,,
2,2,2,-30,1.00 ,2,-1,0,3.680 ,,,,,
2,2,3,45,1.20 ,1,1,1,3.860 ,,,,,
2,2,4,15,0.80 ,2,-1,0,3.590 ,,,,,
2,2,5,-30,1.20 ,1,1,1,3.630 ,,,,,
2,2,6,30,1.20 ,2,-1,0,3.700 ,,,,,
2,2,7,0,0.80 ,2,-1,0,8.520 ,,,,,
2,2,8,45,1.00 ,1,1,1,3.720 ,,,,,
2,2,9,-15,1.20 ,2,-1,1,3.590 ,,,,,
2,2,10,45,1.20 ,2,-1,1,6.760 ,,,,,
2,2,11,-45,1.00 ,1,1,1,3.770 ,,,,,
2,2,12,0,1.20 ,1,1,0,4.020 ,,,,,
2,2,13,30,1.00 ,2,-1,1,5.270 ,,,,,
2,2,14,0,1.20 ,2,-1,1,3.910 ,,,,,
2,2,15,30,1.00 ,1,1,1,3.800 ,,,,,
2,2,16,-45,1.20 ,1,1,1,3.680 ,,,,,
2,2,17,0,0.80 ,1,1,0,7.490 ,,,,,
2,2,18,-30,1.00 ,1,1,1,3.730 ,,,,,
2,2,19,-15,1.00 ,1,1,1,3.890 ,,,,,
2,2,20,-15,0.80 ,1,1,1,3.660 ,,,,,
2,2,21,15,0.80 ,1,1,1,3.660 ,,,,,
2,2,22,-45,0.80 ,2,-1,1,3.780 ,,,,,
2,2,23,0,1.00 ,1,1,0,4.200 ,,,,,
2,2,24,30,1.20 ,1,1,0,3.520 ,,,,,
2,2,25,15,1.00 ,1,1,0,5.150 ,,,,,
2,2,26,-15,0.80 ,2,-1,1,3.430 ,,,,,
2,2,27,-15,1.00 ,2,-1,1,3.810 ,,,,,
2,2,28,-30,0.80 ,2,-1,1,3.650 ,,,,,
2,2,29,15,1.20 ,2,-1,1,3.630 ,,,,,
2,2,30,45,0.80 ,2,-1,1,3.670 ,,,,,
2,2,31,-15,1.20 ,1,1,0,4.110 ,,,,,
2,2,32,0,1.00 ,2,-1,0,3.820 ,,,,,
2,2,33,-45,0.80 ,1,1,1,3.640 ,,,,,
2,2,34,-45,1.00 ,2,-1,1,3.640 ,,,,,
2,2,35,-45,1.20 ,2,-1,1,3.390 ,,,,,
2,2,36,-30,1.20 ,2,-1,1,3.750 ,,,,,
2,2,37,-30,0.80 ,1,1,1,3.650 ,,,,,
2,2,38,15,1.00 ,2,-1,1,3.650 ,,,,,
2,2,39,45,0.80 ,1,1,0,3.770 ,,,,,
2,2,40,15,1.20 ,1,1,1,5.270 ,,,,,
2,2,41,45,1.00 ,2,-1,1,3.700 ,,,,,
2,2,42,30,0.80 ,2,-1,1,3.650 ,,,,,
2,3,1,45,0.80 ,1,1,1,3.610 ,,,,,
2,3,2,-15,1.20 ,2,-1,1,3.680 ,,,,,
2,3,3,0,0.80 ,2,-1,0,3.820 ,,,,,
2,3,4,-15,1.20 ,1,1,1,3.650 ,,,,,
2,3,5,45,1.20 ,2,-1,1,3.650 ,,,,,
2,3,6,15,1.00 ,1,1,1,3.620 ,,,,,
2,3,7,0,1.20 ,1,1,1,3.660 ,,,,,
2,3,8,30,0.80 ,2,-1,1,3.620 ,,,,,
2,3,9,-15,0.80 ,2,-1,1,3.690 ,,,,,
2,3,10,-45,1.20 ,1,1,1,3.580 ,,,,,
2,3,11,45,1.00 ,2,-1,1,4.040 ,,,,,
2,3,12,-30,1.00 ,2,-1,1,3.710 ,,,,,
2,3,13,-15,1.00 ,2,-1,1,3.700 ,,,,,
2,3,14,-30,0.80 ,1,1,1,3.890 ,,,,,
2,3,15,-30,0.80 ,2,-1,1,3.670 ,,,,,
2,3,16,0,1.00 ,2,-1,1,3.640 ,,,,,
2,3,17,-45,1.00 ,2,-1,1,3.630 ,,,,,
2,3,18,15,1.00 ,2,-1,1,3.880 ,,,,,
2,3,19,0,1.00 ,1,1,1,3.660 ,,,,,
2,3,20,-45,0.80 ,2,-1,1,3.710 ,,,,,
2,3,21,30,1.20 ,2,-1,0,4.740 ,,,,,
2,3,22,30,0.80 ,1,1,1,3.610 ,,,,,
2,3,23,-30,1.20 ,1,1,1,3.570 ,,,,,
2,3,24,-30,1.00 ,1,1,1,3.580 ,,,,,
2,3,25,-45,1.00 ,1,1,1,3.600 ,,,,,
2,3,26,-45,0.80 ,1,1,1,3.640 ,,,,,
2,3,27,-30,1.20 ,2,-1,1,3.720 ,,,,,
2,3,28,-15,0.80 ,1,1,1,3.790 ,,,,,
2,3,29,-45,1.20 ,2,-1,1,3.760 ,,,,,
2,3,30,0,0.80 ,1,1,1,3.680 ,,,,,
2,3,31,45,1.00 ,1,1,0,3.830 ,,,,,
2,3,32,15,0.80 ,2,-1,1,3.630 ,,,,,
2,3,33,30,1.00 ,1,1,1,3.660 ,,,,,
2,3,34,15,0.80 ,1,1,1,3.660 ,,,,,
2,3,35,45,0.80 ,2,-1,1,3.660 ,,,,,
2,3,36,0,1.20 ,2,-1,1,3.650 ,,,,,
2,3,37,30,1.00 ,2,-1,1,3.630 ,,,,,
2,3,38,30,1.20 ,1,1,0,4.040 ,,,,,
2,3,39,15,1.20 ,2,-1,0,3.900 ,,,,,
2,3,40,-15,1.00 ,1,1,1,3.690 ,,,,,
2,3,41,45,1.20 ,1,1,1,3.620 ,,,,,
2,3,42,15,1.20 ,1,1,1,3.690 ,,,,,
3,1,1,-15,1.20 ,1,1,1,4.800 ,,,,,
3,1,2,30,0.80 ,1,1,1,4.460 ,,,,,
3,1,3,15,0.80 ,1,1,1,3.910 ,,,,,
3,1,4,45,0.80 ,2,-1,1,3.990 ,,,,,
3,1,5,-45,0.80 ,1,1,0,4.650 ,,,,,
3,1,6,0,1.20 ,2,-1,1,3.840 ,,,,,
3,1,7,45,1.00 ,2,-1,1,7.270 ,,,,,
3,1,8,-30,0.80 ,1,1,1,3.990 ,,,,,
3,1,9,-15,0.80 ,1,1,1,4.380 ,,,,,
3,1,10,-45,0.80 ,2,-1,1,3.920 ,,,,,
3,1,11,15,0.80 ,2,-1,1,3.720 ,,,,,
3,1,12,15,1.20 ,2,-1,1,3.700 ,,,,,
3,1,13,0,1.00 ,2,-1,1,3.690 ,,,,,
3,1,14,-15,1.20 ,2,-1,0,4.050 ,,,,,
3,1,15,0,0.80 ,2,-1,1,3.700 ,,,,,
3,1,16,-30,1.00 ,2,-1,1,3.670 ,,,,,
3,1,17,45,1.00 ,1,1,0,3.510 ,,,,,
3,1,18,30,1.00 ,2,-1,1,3.680 ,,,,,
3,1,19,30,1.00 ,1,1,0,4.590 ,,,,,
3,1,20,45,1.20 ,1,1,0,4.080 ,,,,,
3,1,21,-45,1.00 ,1,1,1,4.470 ,,,,,
3,1,22,-15,1.00 ,1,1,1,3.530 ,,,,,
3,1,23,15,1.00 ,2,-1,0,3.560 ,,,,,
3,1,24,-15,1.00 ,2,-1,0,3.800 ,,,,,
3,1,25,30,1.20 ,1,1,1,3.770 ,,,,,
3,1,26,0,1.20 ,1,1,1,3.750 ,,,,,
3,1,27,30,0.80 ,2,-1,0,4.050 ,,,,,
3,1,28,15,1.00 ,1,1,1,4.760 ,,,,,
3,1,29,-30,1.00 ,1,1,1,4.770 ,,,,,
3,1,30,45,1.20 ,2,-1,0,3.710 ,,,,,
3,1,31,-15,0.80 ,2,-1,1,3.810 ,,,,,
3,1,32,-45,1.00 ,2,-1,1,3.890 ,,,,,
3,1,33,-30,1.20 ,2,-1,1,3.840 ,,,,,
3,1,34,0,1.00 ,1,1,1,3.740 ,,,,,
3,1,35,15,1.20 ,1,1,1,3.700 ,,,,,
3,1,36,-45,1.20 ,1,1,1,3.770 ,,,,,
3,1,37,30,1.20 ,2,-1,1,3.650 ,,,,,
3,1,38,-45,1.20 ,2,-1,1,3.800 ,,,,,
3,1,39,0,0.80 ,1,1,1,8.560 ,,,,,
3,1,40,-30,0.80 ,2,-1,1,3.870 ,,,,,
3,1,41,-30,1.20 ,1,1,0,3.610 ,,,,,
3,1,42,45,0.80 ,1,1,1,3.840 ,,,,,
3,2,1,0,0.80 ,1,1,1,3.620 ,,,,,
3,2,2,0,0.80 ,2,-1,1,8.840 ,,,,,
3,2,3,-30,0.80 ,1,1,1,3.870 ,,,,,
3,2,4,45,1.00 ,2,-1,0,3.660 ,,,,,
3,2,5,15,1.20 ,1,1,0,13.200 ,,,,,
3,2,6,15,1.00 ,1,1,0,4.780 ,,,,,
3,2,7,30,1.20 ,2,-1,1,4.440 ,,,,,
3,2,8,15,1.20 ,2,-1,1,12.000 ,,,,,
3,2,9,-15,0.80 ,2,-1,0,3.830 ,,,,,
3,2,10,45,1.00 ,1,1,1,4.440 ,,,,,
3,2,11,-45,1.00 ,1,1,1,6.700 ,,,,,
3,2,12,-30,1.00 ,1,1,1,3.710 ,,,,,
3,2,13,15,1.00 ,2,-1,0,6.090 ,,,,,
3,2,14,30,0.80 ,1,1,1,3.820 ,,,,,
3,2,15,30,1.00 ,1,1,0,5.240 ,,,,,
3,2,16,-30,1.00 ,2,-1,0,3.820 ,,,,,
3,2,17,-45,0.80 ,1,1,1,4.040 ,,,,,
3,2,18,-45,1.20 ,1,1,1,6.370 ,,,,,
3,2,19,30,0.80 ,2,-1,0,3.720 ,,,,,
3,2,20,-15,1.20 ,2,-1,0,3.830 ,,,,,
3,2,21,45,1.20 ,1,1,1,3.690 ,,,,,
3,2,22,-15,0.80 ,1,1,1,3.710 ,,,,,
3,2,23,-30,1.20 ,2,-1,0,4.250 ,,,,,
3,2,24,0,1.20 ,2,-1,0,4.230 ,,,,,
3,2,25,0,1.00 ,2,-1,0,3.700 ,,,,,
3,2,26,-15,1.00 ,1,1,1,4.320 ,,,,,
3,2,27,-15,1.00 ,2,-1,0,3.810 ,,,,,
3,2,28,30,1.20 ,1,1,1,3.730 ,,,,,
3,2,29,0,1.20 ,1,1,1,3.710 ,,,,,
3,2,30,45,0.80 ,2,-1,0,4.510 ,,,,,
3,2,31,15,0.80 ,1,1,1,3.750 ,,,,,
3,2,32,-30,0.80 ,2,-1,1,3.760 ,,,,,
3,2,33,-45,0.80 ,2,-1,0,3.860 ,,,,,
3,2,34,30,1.00 ,2,-1,1,4.330 ,,,,,
3,2,35,-30,1.20 ,1,1,1,3.590 ,,,,,
3,2,36,-45,1.00 ,2,-1,0,3.800 ,,,,,
3,2,37,45,0.80 ,1,1,1,3.590 ,,,,,
3,2,38,45,1.20 ,2,-1,0,4.310 ,,,,,
3,2,39,-15,1.20 ,1,1,1,3.670 ,,,,,
3,2,40,15,0.80 ,2,-1,0,3.720 ,,,,,
3,2,41,-45,1.20 ,2,-1,1,3.920 ,,,,,
3,2,42,0,1.00 ,1,1,1,3.660 ,,,,,
3,3,1,-15,1.00 ,1,1,1,5.620 ,,,,,
3,3,2,-15,1.20 ,2,-1,0,6.690 ,,,,,
3,3,3,0,0.80 ,1,1,1,3.790 ,,,,,
3,3,4,-15,1.20 ,1,1,1,3.700 ,,,,,
3,3,5,30,1.00 ,2,-1,1,3.890 ,,,,,
3,3,6,-15,0.80 ,1,1,1,3.920 ,,,,,
3,3,7,15,0.80 ,2,-1,1,4.300 ,,,,,
3,3,8,45,1.00 ,1,1,1,3.420 ,,,,,
3,3,9,30,0.80 ,1,1,1,3.600 ,,,,,
3,3,10,-15,0.80 ,2,-1,0,3.730 ,,,,,
3,3,11,30,1.20 ,2,-1,1,3.600 ,,,,,
3,3,12,-30,1.20 ,2,-1,0,3.680 ,,,,,
3,3,13,45,1.20 ,1,1,1,3.620 ,,,,,
3,3,14,0,1.20 ,2,-1,1,3.630 ,,,,,
3,3,15,45,0.80 ,1,1,1,3.590 ,,,,,
3,3,16,-30,0.80 ,1,1,1,3.660 ,,,,,
3,3,17,15,1.20 ,2,-1,1,3.600 ,,,,,
3,3,18,15,0.80 ,1,1,1,4.350 ,,,,,
3,3,19,-45,0.80 ,1,1,1,3.670 ,,,,,
3,3,20,-45,0.80 ,2,-1,0,3.650 ,,,,,
3,3,21,-45,1.00 ,2,-1,1,3.660 ,,,,,
3,3,22,0,0.80 ,2,-1,1,3.610 ,,,,,
3,3,23,30,0.80 ,2,-1,0,4.160 ,,,,,
3,3,24,45,1.20 ,2,-1,1,5.950 ,,,,,
3,3,25,0,1.00 ,2,-1,1,3.920 ,,,,,
3,3,26,15,1.20 ,1,1,1,3.650 ,,,,,
3,3,27,45,0.80 ,2,-1,0,3.850 ,,,,,
3,3,28,0,1.20 ,1,1,1,4.970 ,,,,,
3,3,29,-45,1.20 ,1,1,0,4.250 ,,,,,
3,3,30,15,1.00 ,2,-1,0,8.720 ,,,,,
3,3,31,-30,1.00 ,1,1,1,3.660 ,,,,,
3,3,32,-30,1.00 ,2,-1,0,4.450 ,,,,,
3,3,33,-30,1.20 ,1,1,1,5.030 ,,,,,
3,3,34,45,1.00 ,2,-1,1,3.660 ,,,,,
3,3,35,30,1.00 ,1,1,1,3.550 ,,,,,
3,3,36,-45,1.00 ,1,1,0,3.620 ,,,,,
3,3,37,-30,0.80 ,2,-1,0,3.670 ,,,,,
3,3,38,-15,1.00 ,2,-1,0,3.640 ,,,,,
3,3,39,15,1.00 ,1,1,1,3.660 ,,,,,
3,3,40,-45,1.20 ,2,-1,0,3.680 ,,,,,
3,3,41,30,1.20 ,1,1,1,3.660 ,,,,,
3,3,42,0,1.00 ,1,1,1,3.700 ,,,,,
4,1,1,-15,1.20 ,1,1,1,3.530 ,,,,,
4,1,2,30,0.80 ,1,1,0,3.460 ,,,,,
4,1,3,15,0.80 ,1,1,1,3.530 ,,,,,
4,1,4,45,0.80 ,2,-1,1,4.370 ,,,,,
4,1,5,-45,0.80 ,1,1,0,3.370 ,,,,,
4,1,6,0,1.20 ,2,-1,1,3.730 ,,,,,
4,1,7,45,1.00 ,2,-1,0,3.470 ,,,,,
4,1,8,-30,0.80 ,1,1,1,3.700 ,,,,,
4,1,9,-15,0.80 ,1,1,1,3.370 ,,,,,
4,1,10,-45,0.80 ,2,-1,0,3.370 ,,,,,
4,1,11,15,0.80 ,2,-1,0,3.540 ,,,,,
4,1,12,15,1.20 ,2,-1,1,3.770 ,,,,,
4,1,13,0,1.00 ,2,-1,0,3.360 ,,,,,
4,1,14,-15,1.20 ,2,-1,1,3.520 ,,,,,
4,1,15,0,0.80 ,2,-1,1,3.750 ,,,,,
4,1,16,-30,1.00 ,2,-1,1,3.590 ,,,,,
4,1,17,45,1.00 ,1,1,0,3.370 ,,,,,
4,1,18,30,1.00 ,2,-1,0,3.800 ,,,,,
4,1,19,30,1.00 ,1,1,0,3.910 ,,,,,
4,1,20,45,1.20 ,1,1,1,3.540 ,,,,,
4,1,21,-45,1.00 ,1,1,1,3.370 ,,,,,
4,1,22,-15,1.00 ,1,1,1,3.590 ,,,,,
4,1,23,15,1.00 ,2,-1,1,3.980 ,,,,,
4,1,24,-15,1.00 ,2,-1,0,3.760 ,,,,,
4,1,25,30,1.20 ,1,1,0,3.370 ,,,,,
4,1,26,0,1.20 ,1,1,0,3.570 ,,,,,
4,1,27,30,0.80 ,2,-1,1,3.400 ,,,,,
4,1,28,15,1.00 ,1,1,0,3.370 ,,,,,
4,1,29,-30,1.00 ,1,1,1,3.560 ,,,,,
4,1,30,45,1.20 ,2,-1,1,3.630 ,,,,,
4,1,31,-15,0.80 ,2,-1,1,3.880 ,,,,,
4,1,32,-45,1.00 ,2,-1,1,3.550 ,,,,,
4,1,33,-30,1.20 ,2,-1,1,3.370 ,,,,,
4,1,34,0,1.00 ,1,1,0,3.370 ,,,,,
4,1,35,15,1.20 ,1,1,1,3.680 ,,,,,
4,1,36,-45,1.20 ,1,1,1,3.860 ,,,,,
4,1,37,30,1.20 ,2,-1,0,4.180 ,,,,,
4,1,38,-45,1.20 ,2,-1,1,3.380 ,,,,,
4,1,39,0,0.80 ,1,1,1,3.370 ,,,,,
4,1,40,-30,0.80 ,2,-1,0,3.440 ,,,,,
4,1,41,-30,1.20 ,1,1,0,3.590 ,,,,,
4,1,42,45,0.80 ,1,1,0,3.810 ,,,,,
4,2,1,0,0.80 ,1,1,1,3.440 ,,,,,
4,2,2,0,0.80 ,2,-1,0,3.360 ,,,,,
4,2,3,-30,0.80 ,1,1,1,4.010 ,,,,,
4,2,4,45,1.00 ,2,-1,0,3.370 ,,,,,
4,2,5,15,1.20 ,1,1,0,3.380 ,,,,,
4,2,6,15,1.00 ,1,1,1,3.370 ,,,,,
4,2,7,30,1.20 ,2,-1,0,3.370 ,,,,,
4,2,8,15,1.20 ,2,-1,0,3.370 ,,,,,
4,2,9,-15,0.80 ,2,-1,1,4.070 ,,,,,
4,2,10,45,1.00 ,1,1,0,3.370 ,,,,,
4,2,11,-45,1.00 ,1,1,1,3.460 ,,,,,
4,2,12,-30,1.00 ,1,1,0,3.370 ,,,,,
4,2,13,15,1.00 ,2,-1,1,3.460 ,,,,,
4,2,14,30,0.80 ,1,1,1,3.540 ,,,,,
4,2,15,30,1.00 ,1,1,1,3.510 ,,,,,
4,2,16,-30,1.00 ,2,-1,0,3.570 ,,,,,
4,2,17,-45,0.80 ,1,1,1,3.370 ,,,,,
4,2,18,-45,1.20 ,1,1,1,3.370 ,,,,,
4,2,19,30,0.80 ,2,-1,1,3.370 ,,,,,
4,2,20,-15,1.20 ,2,-1,0,3.530 ,,,,,
4,2,21,45,1.20 ,1,1,1,3.360 ,,,,,
4,2,22,-15,0.80 ,1,1,1,3.370 ,,,,,
4,2,23,-30,1.20 ,2,-1,1,3.930 ,,,,,
4,2,24,0,1.20 ,2,-1,0,3.940 ,,,,,
4,2,25,0,1.00 ,2,-1,1,3.780 ,,,,,
4,2,26,-15,1.00 ,1,1,1,3.860 ,,,,,
4,2,27,-15,1.00 ,2,-1,1,3.810 ,,,,,
4,2,28,30,1.20 ,1,1,1,3.360 ,,,,,
4,2,29,0,1.20 ,1,1,1,3.450 ,,,,,
4,2,30,45,0.80 ,2,-1,1,3.360 ,,,,,
4,2,31,15,0.80 ,1,1,0,3.690 ,,,,,
4,2,32,-30,0.80 ,2,-1,1,3.740 ,,,,,
4,2,33,-45,0.80 ,2,-1,0,3.440 ,,,,,
4,2,34,30,1.00 ,2,-1,0,3.510 ,,,,,
4,2,35,-30,1.20 ,1,1,1,3.580 ,,,,,
4,2,36,-45,1.00 ,2,-1,1,4.010 ,,,,,
4,2,37,45,0.80 ,1,1,0,3.720 ,,,,,
4,2,38,45,1.20 ,2,-1,1,3.580 ,,,,,
4,2,39,-15,1.20 ,1,1,0,3.370 ,,,,,
4,2,40,15,0.80 ,2,-1,1,3.770 ,,,,,
4,2,41,-45,1.20 ,2,-1,1,3.610 ,,,,,
4,2,42,0,1.00 ,1,1,0,3.370 ,,,,,
4,3,1,-15,1.00 ,1,1,0,3.360 ,,,,,
4,3,2,-15,1.20 ,2,-1,1,3.850 ,,,,,
4,3,3,0,0.80 ,1,1,1,3.740 ,,,,,
4,3,4,-15,1.20 ,1,1,1,3.450 ,,,,,
4,3,5,30,1.00 ,2,-1,1,4.380 ,,,,,
4,3,6,-15,0.80 ,1,1,0,3.470 ,,,,,
4,3,7,15,0.80 ,2,-1,0,3.380 ,,,,,
4,3,8,45,1.00 ,1,1,1,3.860 ,,,,,
4,3,9,30,0.80 ,1,1,0,3.500 ,,,,,
4,3,10,-15,0.80 ,2,-1,0,3.830 ,,,,,
4,3,11,30,1.20 ,2,-1,1,3.360 ,,,,,
4,3,12,-30,1.20 ,2,-1,0,3.510 ,,,,,
4,3,13,45,1.20 ,1,1,0,3.410 ,,,,,
4,3,14,0,1.20 ,2,-1,0,3.370 ,,,,,
4,3,15,45,0.80 ,1,1,0,3.370 ,,,,,
4,3,16,-30,0.80 ,1,1,0,4.420 ,,,,,
4,3,17,15,1.20 ,2,-1,1,3.710 ,,,,,
4,3,18,15,0.80 ,1,1,1,5.680 ,,,,,
4,3,19,-45,0.80 ,1,1,0,3.790 ,,,,,
4,3,20,-45,0.80 ,2,-1,1,3.970 ,,,,,
4,3,21,-45,1.00 ,2,-1,1,3.780 ,,,,,
4,3,22,0,0.80 ,2,-1,1,4.110 ,,,,,
4,3,23,30,0.80 ,2,-1,1,3.930 ,,,,,
4,3,24,45,1.20 ,2,-1,1,3.630 ,,,,,
4,3,25,0,1.00 ,2,-1,1,3.640 ,,,,,
4,3,26,15,1.20 ,1,1,0,3.370 ,,,,,
4,3,27,45,0.80 ,2,-1,1,3.470 ,,,,,
4,3,28,0,1.20 ,1,1,0,3.370 ,,,,,
4,3,29,-45,1.20 ,1,1,1,3.370 ,,,,,
4,3,30,15,1.00 ,2,-1,1,3.840 ,,,,,
4,3,31,-30,1.00 ,1,1,1,3.410 ,,,,,
4,3,32,-30,1.00 ,2,-1,1,3.800 ,,,,,
4,3,33,-30,1.20 ,1,1,1,3.620 ,,,,,
4,3,34,45,1.00 ,2,-1,1,3.410 ,,,,,
4,3,35,30,1.00 ,1,1,0,3.650 ,,,,,
4,3,36,-45,1.00 ,1,1,1,3.620 ,,,,,
4,3,37,-30,0.80 ,2,-1,1,3.680 ,,,,,
4,3,38,-15,1.00 ,2,-1,0,3.690 ,,,,,
4,3,39,15,1.00 ,1,1,1,3.360 ,,,,,
4,3,40,-45,1.20 ,2,-1,1,3.410 ,,,,,
4,3,41,30,1.20 ,1,1,1,3.620 ,,,,,
4,3,42,0,1.00 ,1,1,1,3.370 ,,,,,
5,1,1,-15,0.80 ,1,1,1,4.350 ,,,,,
5,1,2,-15,1.20 ,2,-1,0,7.750 ,,,,,
5,1,3,0,0.80 ,1,1,1,3.410 ,,,,,
5,1,4,30,1.20 ,1,1,1,3.360 ,,,,,
5,1,5,-15,0.80 ,2,-1,0,3.640 ,,,,,
5,1,6,30,1.00 ,1,1,1,3.720 ,,,,,
5,1,7,0,1.20 ,2,-1,0,3.810 ,,,,,
5,1,8,30,0.80 ,2,-1,1,3.670 ,,,,,
5,1,9,45,1.20 ,1,1,1,3.630 ,,,,,
5,1,10,-30,1.20 ,2,-1,0,3.610 ,,,,,
5,1,11,45,1.00 ,2,-1,0,3.620 ,,,,,
5,1,12,-45,0.80 ,1,1,1,5.830 ,,,,,
5,1,13,15,0.80 ,2,-1,1,4.710 ,,,,,
5,1,14,-45,1.00 ,1,1,1,3.370 ,,,,,
5,1,15,30,1.00 ,2,-1,0,3.640 ,,,,,
5,1,16,-15,1.00 ,2,-1,0,3.750 ,,,,,
5,1,17,30,1.20 ,2,-1,0,3.850 ,,,,,
5,1,18,45,0.80 ,2,-1,1,3.620 ,,,,,
5,1,19,-30,1.20 ,1,1,1,3.620 ,,,,,
5,1,20,15,1.00 ,1,1,1,3.640 ,,,,,
5,1,21,-30,1.00 ,1,1,1,3.670 ,,,,,
5,1,22,0,1.00 ,2,-1,0,3.620 ,,,,,
5,1,23,15,1.20 ,2,-1,0,3.680 ,,,,,
5,1,24,45,0.80 ,1,1,1,3.660 ,,,,,
5,1,25,15,1.00 ,2,-1,0,3.810 ,,,,,
5,1,26,0,1.20 ,1,1,1,3.730 ,,,,,
5,1,27,-30,0.80 ,2,-1,0,3.700 ,,,,,
5,1,28,45,1.00 ,1,1,1,3.670 ,,,,,
5,1,29,-30,1.00 ,2,-1,0,3.710 ,,,,,
5,1,30,-15,1.20 ,1,1,1,3.660 ,,,,,
5,1,31,-15,1.00 ,1,1,1,3.660 ,,,,,
5,1,32,-45,1.20 ,1,1,1,3.640 ,,,,,
5,1,33,15,1.20 ,1,1,1,3.620 ,,,,,
5,1,34,-45,0.80 ,2,-1,0,3.580 ,,,,,
5,1,35,0,1.00 ,1,1,1,3.550 ,,,,,
5,1,36,-45,1.20 ,2,-1,0,4.080 ,,,,,
5,1,37,-45,1.00 ,2,-1,0,3.750 ,,,,,
5,1,38,15,0.80 ,1,1,1,3.620 ,,,,,
5,1,39,0,0.80 ,2,-1,0,3.600 ,,,,,
5,1,40,45,1.20 ,2,-1,1,3.820 ,,,,,
5,1,41,-30,0.80 ,1,1,1,3.370 ,,,,,
5,1,42,30,0.80 ,1,1,1,3.490 ,,,,,
5,2,1,30,0.80 ,1,1,1,3.870 ,,,,,
5,2,2,-30,1.00 ,2,-1,0,3.590 ,,,,,
5,2,3,45,1.20 ,1,1,1,3.780 ,,,,,
5,2,4,15,0.80 ,2,-1,0,3.640 ,,,,,
5,2,5,-30,1.20 ,1,1,1,3.600 ,,,,,
5,2,6,30,1.20 ,2,-1,0,3.390 ,,,,,
5,2,7,0,0.80 ,2,-1,0,3.370 ,,,,,
5,2,8,45,1.00 ,1,1,1,3.370 ,,,,,
5,2,9,-15,1.20 ,2,-1,0,3.410 ,,,,,
5,2,10,45,1.20 ,2,-1,0,3.600 ,,,,,
5,2,11,-45,1.00 ,1,1,1,3.490 ,,,,,
5,2,12,0,1.20 ,1,1,1,3.370 ,,,,,
5,2,13,30,1.00 ,2,-1,0,3.370 ,,,,,
5,2,14,0,1.20 ,2,-1,0,3.370 ,,,,,
5,2,15,30,1.00 ,1,1,1,3.370 ,,,,,
5,2,16,-45,1.20 ,1,1,1,3.370 ,,,,,
5,2,17,0,0.80 ,1,1,1,3.520 ,,,,,
5,2,18,-30,1.00 ,1,1,1,4.180 ,,,,,
5,2,19,-15,1.00 ,1,1,0,3.370 ,,,,,
5,2,20,-15,0.80 ,1,1,1,3.440 ,,,,,
5,2,21,15,0.80 ,1,1,1,3.440 ,,,,,
5,2,22,-45,0.80 ,2,-1,1,3.700 ,,,,,
5,2,23,0,1.00 ,1,1,1,3.640 ,,,,,
5,2,24,30,1.20 ,1,1,1,3.590 ,,,,,
5,2,25,15,1.00 ,1,1,1,3.560 ,,,,,
5,2,26,-15,0.80 ,2,-1,1,3.590 ,,,,,
5,2,27,-15,1.00 ,2,-1,0,3.370 ,,,,,
5,2,28,-30,0.80 ,2,-1,1,3.400 ,,,,,
5,2,29,15,1.20 ,2,-1,0,3.370 ,,,,,
5,2,30,45,0.80 ,2,-1,0,3.410 ,,,,,
5,2,31,-15,1.20 ,1,1,1,3.390 ,,,,,
5,2,32,0,1.00 ,2,-1,0,3.360 ,,,,,
5,2,33,-45,0.80 ,1,1,1,3.570 ,,,,,
5,2,34,-45,1.00 ,2,-1,0,3.580 ,,,,,
5,2,35,-45,1.20 ,2,-1,0,3.360 ,,,,,
5,2,36,-30,1.20 ,2,-1,0,3.580 ,,,,,
5,2,37,-30,0.80 ,1,1,1,3.400 ,,,,,
5,2,38,15,1.00 ,2,-1,0,4.100 ,,,,,
5,2,39,45,0.80 ,1,1,1,3.910 ,,,,,
5,2,40,15,1.20 ,1,1,1,3.710 ,,,,,
5,2,41,45,1.00 ,2,-1,1,3.410 ,,,,,
5,2,42,30,0.80 ,2,-1,0,3.890 ,,,,,
5,3,1,45,0.80 ,1,1,1,3.990 ,,,,,
5,3,2,-15,1.20 ,2,-1,0,3.760 ,,,,,
5,3,3,0,0.80 ,2,-1,0,3.390 ,,,,,
5,3,4,-15,1.20 ,1,1,1,3.410 ,,,,,
5,3,5,45,1.20 ,2,-1,0,3.400 ,,,,,
5,3,6,15,1.00 ,1,1,1,3.370 ,,,,,
5,3,7,0,1.20 ,1,1,1,3.470 ,,,,,
5,3,8,30,0.80 ,2,-1,0,4.760 ,,,,,
5,3,9,-15,0.80 ,2,-1,1,3.600 ,,,,,
5,3,10,-45,1.20 ,1,1,1,3.370 ,,,,,
5,3,11,45,1.00 ,2,-1,1,3.370 ,,,,,
5,3,12,-30,1.00 ,2,-1,1,4.160 ,,,,,
5,3,13,-15,1.00 ,2,-1,1,3.580 ,,,,,
5,3,14,-30,0.80 ,1,1,0,3.360 ,,,,,
5,3,15,-30,0.80 ,2,-1,1,3.780 ,,,,,
5,3,16,0,1.00 ,2,-1,0,3.430 ,,,,,
5,3,17,-45,1.00 ,2,-1,0,3.370 ,,,,,
5,3,18,15,1.00 ,2,-1,0,3.370 ,,,,,
5,3,19,0,1.00 ,1,1,1,3.530 ,,,,,
5,3,20,-45,0.80 ,2,-1,0,3.380 ,,,,,
5,3,21,30,1.20 ,2,-1,0,3.360 ,,,,,
5,3,22,30,0.80 ,1,1,0,3.370 ,,,,,
5,3,23,-30,1.20 ,1,1,0,3.370 ,,,,,
5,3,24,-30,1.00 ,1,1,0,3.560 ,,,,,
5,3,25,-45,1.00 ,1,1,0,3.410 ,,,,,
5,3,26,-45,0.80 ,1,1,0,3.370 ,,,,,
5,3,27,-30,1.20 ,2,-1,1,3.400 ,,,,,
5,3,28,-15,0.80 ,1,1,0,3.370 ,,,,,
5,3,29,-45,1.20 ,2,-1,1,3.570 ,,,,,
5,3,30,0,0.80 ,1,1,1,3.930 ,,,,,
5,3,31,45,1.00 ,1,1,1,3.550 ,,,,,
5,3,32,15,0.80 ,2,-1,0,3.410 ,,,,,
5,3,33,30,1.00 ,1,1,1,3.360 ,,,,,
5,3,34,15,0.80 ,1,1,0,3.370 ,,,,,
5,3,35,45,0.80 ,2,-1,0,3.370 ,,,,,
5,3,36,0,1.20 ,2,-1,0,3.370 ,,,,,
5,3,37,30,1.00 ,2,-1,0,3.680 ,,,,,
5,3,38,30,1.20 ,1,1,1,3.370 ,,,,,
5,3,39,15,1.20 ,2,-1,0,3.750 ,,,,,
5,3,40,-15,1.00 ,1,1,1,3.780 ,,,,,
5,3,41,45,1.20 ,1,1,1,3.580 ,,,,,
5,3,42,15,1.20 ,1,1,1,3.840 ,,,,,
6,1,1,-15,0.80 ,1,1,1,3.410 ,,,,,
6,1,2,-15,1.20 ,2,-1,1,3.830 ,,,,,
6,1,3,0,0.80 ,1,1,1,4.740 ,,,,,
6,1,4,30,1.20 ,1,1,0,3.450 ,,,,,
6,1,5,-15,0.80 ,2,-1,1,3.750 ,,,,,
6,1,6,30,1.00 ,1,1,1,4.130 ,,,,,
6,1,7,0,1.20 ,2,-1,1,3.360 ,,,,,
6,1,8,30,0.80 ,2,-1,1,4.150 ,,,,,
6,1,9,45,1.20 ,1,1,0,3.730 ,,,,,
6,1,10,-30,1.20 ,2,-1,1,3.940 ,,,,,
6,1,11,45,1.00 ,2,-1,0,3.350 ,,,,,
6,1,12,-45,0.80 ,1,1,1,3.810 ,,,,,
6,1,13,15,0.80 ,2,-1,0,3.370 ,,,,,
6,1,14,-45,1.00 ,1,1,1,4.430 ,,,,,
6,1,15,30,1.00 ,2,-1,0,3.630 ,,,,,
6,1,16,-15,1.00 ,2,-1,1,3.610 ,,,,,
6,1,17,30,1.20 ,2,-1,0,4.000 ,,,,,
6,1,18,45,0.80 ,2,-1,1,3.530 ,,,,,
6,1,19,-30,1.20 ,1,1,1,3.360 ,,,,,
6,1,20,15,1.00 ,1,1,1,3.660 ,,,,,
6,1,21,-30,1.00 ,1,1,1,3.360 ,,,,,
6,1,22,0,1.00 ,2,-1,1,3.970 ,,,,,
6,1,23,15,1.20 ,2,-1,1,3.620 ,,,,,
6,1,24,45,0.80 ,1,1,1,4.360 ,,,,,
6,1,25,15,1.00 ,2,-1,1,3.750 ,,,,,
6,1,26,0,1.20 ,1,1,0,3.890 ,,,,,
6,1,27,-30,0.80 ,2,-1,1,3.630 ,,,,,
6,1,28,45,1.00 ,1,1,0,3.770 ,,,,,
6,1,29,-30,1.00 ,2,-1,1,3.740 ,,,,,
6,1,30,-15,1.20 ,1,1,1,3.750 ,,,,,
6,1,31,-15,1.00 ,1,1,1,3.360 ,,,,,
6,1,32,-45,1.20 ,1,1,1,3.600 ,,,,,
6,1,33,15,1.20 ,1,1,1,4.120 ,,,,,
6,1,34,-45,0.80 ,2,-1,1,3.600 ,,,,,
6,1,35,0,1.00 ,1,1,0,3.710 ,,,,,
6,1,36,-45,1.20 ,2,-1,1,3.560 ,,,,,
6,1,37,-45,1.00 ,2,-1,1,3.450 ,,,,,
6,1,38,15,0.80 ,1,1,0,3.630 ,,,,,
6,1,39,0,0.80 ,2,-1,0,3.610 ,,,,,
6,1,40,45,1.20 ,2,-1,0,3.700 ,,,,,
6,1,41,-30,0.80 ,1,1,1,3.610 ,,,,,
6,1,42,30,0.80 ,1,1,0,4.960 ,,,,,
6,2,1,30,0.80 ,1,1,1,3.930 ,,,,,
6,2,2,-30,1.00 ,2,-1,1,3.630 ,,,,,
6,2,3,45,1.20 ,1,1,0,3.630 ,,,,,
6,2,4,15,0.80 ,2,-1,0,4.760 ,,,,,
6,2,5,-30,1.20 ,1,1,1,3.610 ,,,,,
6,2,6,30,1.20 ,2,-1,1,3.590 ,,,,,
6,2,7,0,0.80 ,2,-1,1,3.640 ,,,,,
6,2,8,45,1.00 ,1,1,1,3.590 ,,,,,
6,2,9,-15,1.20 ,2,-1,1,3.720 ,,,,,
6,2,10,45,1.20 ,2,-1,1,3.370 ,,,,,
6,2,11,-45,1.00 ,1,1,1,3.620 ,,,,,
6,2,12,0,1.20 ,1,1,0,3.600 ,,,,,
6,2,13,30,1.00 ,2,-1,1,3.800 ,,,,,
6,2,14,0,1.20 ,2,-1,1,3.630 ,,,,,
6,2,15,30,1.00 ,1,1,1,3.760 ,,,,,
6,2,16,-45,1.20 ,1,1,1,3.460 ,,,,,
6,2,17,0,0.80 ,1,1,1,3.640 ,,,,,
6,2,18,-30,1.00 ,1,1,1,3.600 ,,,,,
6,2,19,-15,1.00 ,1,1,1,3.570 ,,,,,
6,2,20,-15,0.80 ,1,1,1,3.430 ,,,,,
6,2,21,15,0.80 ,1,1,1,3.390 ,,,,,
6,2,22,-45,0.80 ,2,-1,1,3.500 ,,,,,
6,2,23,0,1.00 ,1,1,1,3.530 ,,,,,
6,2,24,30,1.20 ,1,1,1,3.360 ,,,,,
6,2,25,15,1.00 ,1,1,1,3.890 ,,,,,
6,2,26,-15,0.80 ,2,-1,1,3.650 ,,,,,
6,2,27,-15,1.00 ,2,-1,1,3.360 ,,,,,
6,2,28,-30,0.80 ,2,-1,1,3.370 ,,,,,
6,2,29,15,1.20 ,2,-1,0,3.450 ,,,,,
6,2,30,45,0.80 ,2,-1,0,3.580 ,,,,,
6,2,31,-15,1.20 ,1,1,1,3.600 ,,,,,
6,2,32,0,1.00 ,2,-1,0,3.700 ,,,,,
6,2,33,-45,0.80 ,1,1,1,3.580 ,,,,,
6,2,34,-45,1.00 ,2,-1,1,3.480 ,,,,,
6,2,35,-45,1.20 ,2,-1,1,3.560 ,,,,,
6,2,36,-30,1.20 ,2,-1,1,3.570 ,,,,,
6,2,37,-30,0.80 ,1,1,1,3.370 ,,,,,
6,2,38,15,1.00 ,2,-1,0,3.510 ,,,,,
6,2,39,45,0.80 ,1,1,0,3.490 ,,,,,
6,2,40,15,1.20 ,1,1,0,3.370 ,,,,,
6,2,41,45,1.00 ,2,-1,1,3.410 ,,,,,
6,2,42,30,0.80 ,2,-1,1,3.360 ,,,,,
6,3,1,45,0.80 ,1,1,0,3.540 ,,,,,
6,3,2,-15,1.20 ,2,-1,1,3.870 ,,,,,
6,3,3,0,0.80 ,2,-1,1,3.430 ,,,,,
6,3,4,-15,1.20 ,1,1,1,3.360 ,,,,,
6,3,5,45,1.20 ,2,-1,1,3.360 ,,,,,
6,3,6,15,1.00 ,1,1,1,3.360 ,,,,,
6,3,7,0,1.20 ,1,1,1,3.360 ,,,,,
6,3,8,30,0.80 ,2,-1,1,3.890 ,,,,,
6,3,9,-15,0.80 ,2,-1,1,3.810 ,,,,,
6,3,10,-45,1.20 ,1,1,1,3.580 ,,,,,
6,3,11,45,1.00 ,2,-1,1,3.420 ,,,,,
6,3,12,-30,1.00 ,2,-1,1,3.520 ,,,,,
6,3,13,-15,1.00 ,2,-1,1,3.840 ,,,,,
6,3,14,-30,0.80 ,1,1,1,3.600 ,,,,,
6,3,15,-30,0.80 ,2,-1,1,3.760 ,,,,,
6,3,16,0,1.00 ,2,-1,1,3.760 ,,,,,
6,3,17,-45,1.00 ,2,-1,1,3.600 ,,,,,
6,3,18,15,1.00 ,2,-1,1,3.350 ,,,,,
6,3,19,0,1.00 ,1,1,0,3.640 ,,,,,
6,3,20,-45,0.80 ,2,-1,1,3.360 ,,,,,
6,3,21,30,1.20 ,2,-1,1,3.360 ,,,,,
6,3,22,30,0.80 ,1,1,1,3.570 ,,,,,
6,3,23,-30,1.20 ,1,1,1,3.430 ,,,,,
6,3,24,-30,1.00 ,1,1,1,3.360 ,,,,,
6,3,25,-45,1.00 ,1,1,1,3.440 ,,,,,
6,3,26,-45,0.80 ,1,1,1,3.370 ,,,,,
6,3,27,-30,1.20 ,2,-1,1,4.080 ,,,,,
6,3,28,-15,0.80 ,1,1,1,3.860 ,,,,,
6,3,29,-45,1.20 ,2,-1,1,3.590 ,,,,,
6,3,30,0,0.80 ,1,1,1,3.850 ,,,,,
6,3,31,45,1.00 ,1,1,0,4.290 ,,,,,
6,3,32,15,0.80 ,2,-1,1,3.530 ,,,,,
6,3,33,30,1.00 ,1,1,0,3.350 ,,,,,
6,3,34,15,0.80 ,1,1,0,3.440 ,,,,,
6,3,35,45,0.80 ,2,-1,1,3.360 ,,,,,
6,3,36,0,1.20 ,2,-1,1,3.730 ,,,,,
6,3,37,30,1.00 ,2,-1,1,3.400 ,,,,,
6,3,38,30,1.20 ,1,1,1,3.530 ,,,,,
6,3,39,15,1.20 ,2,-1,1,3.530 ,,,,,
6,3,40,-15,1.00 ,1,1,1,3.820 ,,,,,
6,3,41,45,1.20 ,1,1,1,3.610 ,,,,,
6,3,42,15,1.20 ,1,1,1,3.360 ,,,,,
7,1,2,30,0.80 ,1,1,0,10.300 ,,,,,
7,1,3,15,0.80 ,1,1,0,3.800 ,,,,,
7,1,4,45,0.80 ,2,-1,0,3.880 ,,,,,
7,1,5,-45,0.80 ,1,1,1,4.400 ,,,,,
7,1,6,0,1.20 ,2,-1,0,3.690 ,,,,,
7,1,7,45,1.00 ,2,-1,0,8.360 ,,,,,
7,1,8,-30,0.80 ,1,1,1,3.640 ,,,,,
7,1,9,-15,0.80 ,1,1,1,3.670 ,,,,,
7,1,10,-45,0.80 ,2,-1,1,9.200 ,,,,,
7,1,11,15,0.80 ,2,-1,0,3.570 ,,,,,
7,1,12,15,1.20 ,2,-1,0,3.570 ,,,,,
7,1,13,0,1.00 ,2,-1,0,3.610 ,,,,,
7,1,14,-15,1.20 ,2,-1,0,3.540 ,,,,,
7,1,15,0,0.80 ,2,-1,0,3.770 ,,,,,
7,1,16,-30,1.00 ,2,-1,1,3.820 ,,,,,
7,1,17,45,1.00 ,1,1,0,9.650 ,,,,,
7,1,18,30,1.00 ,2,-1,0,5.060 ,,,,,
7,1,19,30,1.00 ,1,1,0,6.450 ,,,,,
7,1,20,45,1.20 ,1,1,1,5.750 ,,,,,
7,1,21,-45,1.00 ,1,1,1,3.710 ,,,,,
7,1,22,-15,1.00 ,1,1,1,5.290 ,,,,,
7,1,23,15,1.00 ,2,-1,1,4.770 ,,,,,
7,1,24,-15,1.00 ,2,-1,1,3.600 ,,,,,
7,1,25,30,1.20 ,1,1,1,3.580 ,,,,,
7,1,26,0,1.20 ,1,1,1,3.580 ,,,,,
7,1,27,30,0.80 ,2,-1,1,3.600 ,,,,,
7,1,28,15,1.00 ,1,1,1,4.840 ,,,,,
7,1,29,-30,1.00 ,1,1,1,3.570 ,,,,,
7,1,30,45,1.20 ,2,-1,0,3.480 ,,,,,
7,1,31,-15,0.80 ,2,-1,1,3.660 ,,,,,
7,1,32,-45,1.00 ,2,-1,1,3.460 ,,,,,
7,1,33,-30,1.20 ,2,-1,1,3.740 ,,,,,
7,1,34,0,1.00 ,1,1,0,3.960 ,,,,,
7,1,35,15,1.20 ,1,1,0,4.670 ,,,,,
7,1,36,-45,1.20 ,1,1,1,3.700 ,,,,,
7,1,37,30,1.20 ,2,-1,0,3.580 ,,,,,
7,1,38,-45,1.20 ,2,-1,1,3.580 ,,,,,
7,1,39,0,0.80 ,1,1,0,3.510 ,,,,,
7,1,40,-30,0.80 ,2,-1,1,4.070 ,,,,,
7,1,41,-30,1.20 ,1,1,1,3.690 ,,,,,
7,1,42,45,0.80 ,1,1,0,10.500 ,,,,,
7,2,1,0,0.80 ,1,1,0,5.400 ,,,,,
7,2,2,0,0.80 ,2,-1,1,3.610 ,,,,,
7,2,3,-30,0.80 ,1,1,1,5.120 ,,,,,
7,2,4,45,1.00 ,2,-1,1,3.850 ,,,,,
7,2,5,15,1.20 ,1,1,0,3.620 ,,,,,
7,2,6,15,1.00 ,1,1,0,3.370 ,,,,,
7,2,7,30,1.20 ,2,-1,1,3.730 ,,,,,
7,2,8,15,1.20 ,2,-1,1,3.600 ,,,,,
7,2,9,-15,0.80 ,2,-1,1,3.620 ,,,,,
7,2,10,45,1.00 ,1,1,0,3.590 ,,,,,
7,2,11,-45,1.00 ,1,1,1,3.620 ,,,,,
7,2,12,-30,1.00 ,1,1,1,3.490 ,,,,,
7,2,13,15,1.00 ,2,-1,0,4.020 ,,,,,
7,2,14,30,0.80 ,1,1,0,3.600 ,,,,,
7,2,15,30,1.00 ,1,1,0,3.590 ,,,,,
7,2,16,-30,1.00 ,2,-1,1,3.620 ,,,,,
7,2,17,-45,0.80 ,1,1,1,3.550 ,,,,,
7,2,18,-45,1.20 ,1,1,1,3.370 ,,,,,
7,2,19,30,0.80 ,2,-1,0,3.530 ,,,,,
7,2,20,-15,1.20 ,2,-1,0,5.010 ,,,,,
7,2,21,45,1.20 ,1,1,0,3.590 ,,,,,
7,2,22,-15,0.80 ,1,1,1,3.760 ,,,,,
7,2,23,-30,1.20 ,2,-1,1,3.540 ,,,,,
7,2,24,0,1.20 ,2,-1,0,3.550 ,,,,,
7,2,25,0,1.00 ,2,-1,0,3.540 ,,,,,
7,2,26,-15,1.00 ,1,1,1,3.500 ,,,,,
7,2,27,-15,1.00 ,2,-1,1,3.630 ,,,,,
7,2,28,30,1.20 ,1,1,0,3.740 ,,,,,
7,2,29,0,1.20 ,1,1,1,3.580 ,,,,,
7,2,30,45,0.80 ,2,-1,0,5.260 ,,,,,
7,2,31,15,0.80 ,1,1,0,3.530 ,,,,,
7,2,32,-30,0.80 ,2,-1,1,4.950 ,,,,,
7,2,33,-45,0.80 ,2,-1,1,3.640 ,,,,,
7,2,34,30,1.00 ,2,-1,1,5.070 ,,,,,
7,2,35,-30,1.20 ,1,1,1,4.160 ,,,,,
7,2,36,-45,1.00 ,2,-1,1,3.580 ,,,,,
7,2,37,45,0.80 ,1,1,0,3.620 ,,,,,
7,2,38,45,1.20 ,2,-1,1,4.110 ,,,,,
7,2,39,-15,1.20 ,1,1,1,3.730 ,,,,,
7,2,40,15,0.80 ,2,-1,0,3.570 ,,,,,
7,2,41,-45,1.20 ,2,-1,1,3.680 ,,,,,
7,2,42,0,1.00 ,1,1,1,3.580 ,,,,,
7,3,1,-15,1.00 ,1,1,1,3.590 ,,,,,
7,3,2,-15,1.20 ,2,-1,0,3.610 ,,,,,
7,3,3,0,0.80 ,1,1,1,3.630 ,,,,,
7,3,4,-15,1.20 ,1,1,1,3.540 ,,,,,
7,3,5,30,1.00 ,2,-1,1,3.780 ,,,,,
7,3,6,-15,0.80 ,1,1,1,3.530 ,,,,,
7,3,7,15,0.80 ,2,-1,0,3.370 ,,,,,
7,3,8,45,1.00 ,1,1,0,4.410 ,,,,,
7,3,9,30,0.80 ,1,1,1,3.620 ,,,,,
7,3,10,-15,0.80 ,2,-1,0,3.680 ,,,,,
7,3,11,30,1.20 ,2,-1,1,4.490 ,,,,,
7,3,12,-30,1.20 ,2,-1,1,3.580 ,,,,,
7,3,13,45,1.20 ,1,1,1,3.600 ,,,,,
7,3,14,0,1.20 ,2,-1,1,3.630 ,,,,,
7,3,15,45,0.80 ,1,1,1,3.750 ,,,,,
7,3,16,-30,0.80 ,1,1,1,3.630 ,,,,,
7,3,17,15,1.20 ,2,-1,1,3.690 ,,,,,
7,3,18,15,0.80 ,1,1,0,3.510 ,,,,,
7,3,19,-45,0.80 ,1,1,1,3.570 ,,,,,
7,3,20,-45,0.80 ,2,-1,1,3.640 ,,,,,
7,3,21,-45,1.00 ,2,-1,1,3.610 ,,,,,
7,3,22,0,0.80 ,2,-1,1,3.630 ,,,,,
7,3,23,30,0.80 ,2,-1,1,3.930 ,,,,,
7,3,24,45,1.20 ,2,-1,1,3.590 ,,,,,
7,3,25,0,1.00 ,2,-1,1,6.640 ,,,,,
7,3,26,15,1.20 ,1,1,1,3.530 ,,,,,
7,3,27,45,0.80 ,2,-1,1,3.490 ,,,,,
7,3,28,0,1.20 ,1,1,0,4.050 ,,,,,
7,3,29,-45,1.20 ,1,1,1,3.540 ,,,,,
7,3,30,15,1.00 ,2,-1,0,3.810 ,,,,,
7,3,31,-30,1.00 ,1,1,1,3.530 ,,,,,
7,3,32,-30,1.00 ,2,-1,1,3.540 ,,,,,
7,3,33,-30,1.20 ,1,1,1,3.630 ,,,,,
7,3,34,45,1.00 ,2,-1,0,3.560 ,,,,,
7,3,35,30,1.00 ,1,1,1,3.520 ,,,,,
7,3,36,-45,1.00 ,1,1,1,3.490 ,,,,,
7,3,37,-30,0.80 ,2,-1,1,3.540 ,,,,,
7,3,38,-15,1.00 ,2,-1,1,3.380 ,,,,,
7,3,39,15,1.00 ,1,1,0,3.530 ,,,,,
7,3,40,-45,1.20 ,2,-1,1,3.510 ,,,,,
7,3,41,30,1.20 ,1,1,0,3.560 ,,,,,
7,3,42,0,1.00 ,1,1,1,6.560 ,,,,,
8,1,1,-15,0.80 ,1,1,1,3.910 ,,,,,
8,1,2,-15,1.20 ,2,-1,1,3.880 ,,,,,
8,1,3,0,0.80 ,1,1,0,3.820 ,,,,,
8,1,4,30,1.20 ,1,1,1,3.790 ,,,,,
8,1,5,-15,0.80 ,2,-1,1,3.790 ,,,,,
8,1,6,30,1.00 ,1,1,1,3.690 ,,,,,
8,1,7,0,1.20 ,2,-1,0,3.940 ,,,,,
8,1,8,30,0.80 ,2,-1,1,3.550 ,,,,,
8,1,9,45,1.20 ,1,1,1,3.370 ,,,,,
8,1,10,-30,1.20 ,2,-1,1,4.360 ,,,,,
8,1,11,45,1.00 ,2,-1,1,9.410 ,,,,,
8,1,12,-45,0.80 ,1,1,1,3.900 ,,,,,
8,1,13,15,0.80 ,2,-1,1,3.890 ,,,,,
8,1,14,-45,1.00 ,1,1,1,3.720 ,,,,,
8,1,15,30,1.00 ,2,-1,1,3.700 ,,,,,
8,1,16,-15,1.00 ,2,-1,1,3.720 ,,,,,
8,1,17,30,1.20 ,2,-1,1,3.800 ,,,,,
8,1,18,45,0.80 ,2,-1,1,4.060 ,,,,,
8,1,19,-30,1.20 ,1,1,1,3.660 ,,,,,
8,1,20,15,1.00 ,1,1,1,3.800 ,,,,,
8,1,21,-30,1.00 ,1,1,1,3.890 ,,,,,
8,1,22,0,1.00 ,2,-1,0,6.760 ,,,,,
8,1,23,15,1.20 ,2,-1,1,3.720 ,,,,,
8,1,24,45,0.80 ,1,1,1,3.730 ,,,,,
8,1,25,15,1.00 ,2,-1,1,3.840 ,,,,,
8,1,26,0,1.20 ,1,1,0,3.820 ,,,,,
8,1,27,-30,0.80 ,2,-1,1,3.890 ,,,,,
8,1,28,45,1.00 ,1,1,1,3.760 ,,,,,
8,1,29,-30,1.00 ,2,-1,1,4.010 ,,,,,
8,1,30,-15,1.20 ,1,1,0,7.230 ,,,,,
8,1,31,-15,1.00 ,1,1,0,3.820 ,,,,,
8,1,32,-45,1.20 ,1,1,1,4.380 ,,,,,
8,1,33,15,1.20 ,1,1,1,3.750 ,,,,,
8,1,34,-45,0.80 ,2,-1,1,3.710 ,,,,,
8,1,35,0,1.00 ,1,1,0,4.020 ,,,,,
8,1,36,-45,1.20 ,2,-1,1,3.750 ,,,,,
8,1,37,-45,1.00 ,2,-1,1,3.760 ,,,,,
8,1,38,15,0.80 ,1,1,1,3.760 ,,,,,
8,1,39,0,0.80 ,2,-1,0,4.120 ,,,,,
8,1,40,45,1.20 ,2,-1,0,4.700 ,,,,,
8,1,41,-30,0.80 ,1,1,1,3.660 ,,,,,
8,1,42,30,0.80 ,1,1,1,3.940 ,,,,,
8,2,1,30,0.80 ,1,1,1,3.810 ,,,,,
8,2,2,-30,1.00 ,2,-1,1,3.680 ,,,,,
8,2,3,45,1.20 ,1,1,1,4.560 ,,,,,
8,2,4,15,0.80 ,2,-1,1,3.950 ,,,,,
8,2,5,-30,1.20 ,1,1,1,3.820 ,,,,,
8,2,6,30,1.20 ,2,-1,1,3.730 ,,,,,
8,2,7,0,0.80 ,2,-1,1,3.660 ,,,,,
8,2,8,45,1.00 ,1,1,1,3.680 ,,,,,
8,2,9,-15,1.20 ,2,-1,1,4.360 ,,,,,
8,2,10,45,1.20 ,2,-1,1,3.630 ,,,,,
8,2,11,-45,1.00 ,1,1,1,3.660 ,,,,,
8,2,12,0,1.20 ,1,1,0,4.230 ,,,,,
8,2,13,30,1.00 ,2,-1,1,3.650 ,,,,,
8,2,14,0,1.20 ,2,-1,0,3.640 ,,,,,
8,2,15,30,1.00 ,1,1,1,3.660 ,,,,,
8,2,16,-45,1.20 ,1,1,1,3.880 ,,,,,
8,2,17,0,0.80 ,1,1,1,3.620 ,,,,,
8,2,18,-30,1.00 ,1,1,1,3.800 ,,,,,
8,2,19,-15,1.00 ,1,1,1,3.800 ,,,,,
8,2,20,-15,0.80 ,1,1,1,7.790 ,,,,,
8,2,21,15,0.80 ,1,1,1,3.730 ,,,,,
8,2,22,-45,0.80 ,2,-1,1,3.780 ,,,,,
8,2,23,0,1.00 ,1,1,0,3.930 ,,,,,
8,2,24,30,1.20 ,1,1,0,3.930 ,,,,,
8,2,25,15,1.00 ,1,1,1,4.410 ,,,,,
8,2,26,-15,0.80 ,2,-1,1,3.590 ,,,,,
8,2,27,-15,1.00 ,2,-1,1,3.620 ,,,,,
8,2,28,-30,0.80 ,2,-1,1,3.740 ,,,,,
8,2,29,15,1.20 ,2,-1,0,3.850 ,,,,,
8,2,30,45,0.80 ,2,-1,1,3.700 ,,,,,
8,2,31,-15,1.20 ,1,1,0,3.540 ,,,,,
8,2,32,0,1.00 ,2,-1,0,3.770 ,,,,,
8,2,33,-45,0.80 ,1,1,1,3.580 ,,,,,
8,2,34,-45,1.00 ,2,-1,1,3.390 ,,,,,
8,2,35,-45,1.20 ,2,-1,1,3.840 ,,,,,
8,2,36,-30,1.20 ,2,-1,1,4.230 ,,,,,
8,2,37,-30,0.80 ,1,1,1,3.850 ,,,,,
8,2,38,15,1.00 ,2,-1,0,3.640 ,,,,,
8,2,39,45,0.80 ,1,1,1,3.690 ,,,,,
8,2,40,15,1.20 ,1,1,0,3.720 ,,,,,
8,2,41,45,1.00 ,2,-1,0,3.740 ,,,,,
8,2,42,30,0.80 ,2,-1,1,3.680 ,,,,,
8,3,1,45,0.80 ,1,1,1,3.660 ,,,,,
8,3,2,-15,1.20 ,2,-1,1,3.540 ,,,,,
8,3,3,0,0.80 ,2,-1,1,3.450 ,,,,,
8,3,4,-15,1.20 ,1,1,1,4.660 ,,,,,
8,3,5,45,1.20 ,2,-1,0,3.850 ,,,,,
8,3,6,15,1.00 ,1,1,1,3.730 ,,,,,
8,3,7,0,1.20 ,1,1,0,4.190 ,,,,,
8,3,8,30,0.80 ,2,-1,1,3.680 ,,,,,
8,3,9,-15,0.80 ,2,-1,1,3.610 ,,,,,
8,3,10,-45,1.20 ,1,1,1,4.200 ,,,,,
8,3,11,45,1.00 ,2,-1,0,3.710 ,,,,,
8,3,12,-30,1.00 ,2,-1,1,3.630 ,,,,,
8,3,13,-15,1.00 ,2,-1,1,3.760 ,,,,,
8,3,14,-30,0.80 ,1,1,1,3.610 ,,,,,
8,3,15,-30,0.80 ,2,-1,1,3.650 ,,,,,
8,3,16,0,1.00 ,2,-1,0,3.620 ,,,,,
8,3,17,-45,1.00 ,2,-1,1,3.390 ,,,,,
8,3,18,15,1.00 ,2,-1,0,3.740 ,,,,,
8,3,19,0,1.00 ,1,1,0,4.340 ,,,,,
8,3,20,-45,0.80 ,2,-1,1,3.360 ,,,,,
8,3,21,30,1.20 ,2,-1,0,3.760 ,,,,,
8,3,22,30,0.80 ,1,1,1,3.760 ,,,,,
8,3,23,-30,1.20 ,1,1,1,3.640 ,,,,,
8,3,24,-30,1.00 ,1,1,1,4.590 ,,,,,
8,3,25,-45,1.00 ,1,1,1,3.660 ,,,,,
8,3,26,-45,0.80 ,1,1,1,3.690 ,,,,,
8,3,27,-30,1.20 ,2,-1,1,3.890 ,,,,,
8,3,28,-15,0.80 ,1,1,1,3.690 ,,,,,
8,3,29,-45,1.20 ,2,-1,1,3.950 ,,,,,
8,3,30,0,0.80 ,1,1,0,3.820 ,,,,,
8,3,31,45,1.00 ,1,1,0,3.670 ,,,,,
8,3,32,15,0.80 ,2,-1,0,4.700 ,,,,,
8,3,33,30,1.00 ,1,1,0,3.720 ,,,,,
8,3,34,15,0.80 ,1,1,0,3.670 ,,,,,
8,3,35,45,0.80 ,2,-1,0,3.880 ,,,,,
8,3,36,0,1.20 ,2,-1,1,3.690 ,,,,,
8,3,37,30,1.00 ,2,-1,1,3.740 ,,,,,
8,3,38,30,1.20 ,1,1,1,3.680 ,,,,,
8,3,39,15,1.20 ,2,-1,1,3.870 ,,,,,
8,3,40,-15,1.00 ,1,1,1,3.690 ,,,,,
8,3,41,45,1.20 ,1,1,1,3.660 ,,,,,
8,3,42,15,1.20 ,1,1,1,3.700 ,,,,,
9,1,1,0,1.20 ,1,1,1,4.640 ,,,,,
9,1,2,-45,1.20 ,2,-1,1,3.850 ,,,,,
9,1,3,-45,1.00 ,2,-1,1,3.670 ,,,,,
9,1,4,45,0.80 ,2,-1,1,3.710 ,,,,,
9,1,5,45,1.00 ,1,1,1,5.240 ,,,,,
9,1,6,45,0.80 ,1,1,1,4.810 ,,,,,
9,1,7,-30,1.20 ,1,1,1,4.020 ,,,,,
9,1,8,15,1.00 ,2,-1,1,4.100 ,,,,,
9,1,9,-15,1.00 ,1,1,1,4.030 ,,,,,
9,1,10,-15,1.20 ,2,-1,1,4.180 ,,,,,
9,1,11,45,1.20 ,2,-1,1,3.820 ,,,,,
9,1,12,-45,1.00 ,1,1,1,3.730 ,,,,,
9,1,13,-30,0.80 ,1,1,1,4.080 ,,,,,
9,1,14,-30,0.80 ,2,-1,1,3.760 ,,,,,
9,1,15,15,1.20 ,2,-1,0,5.530 ,,,,,
9,1,16,-30,1.20 ,2,-1,1,3.710 ,,,,,
9,1,17,15,0.80 ,2,-1,1,3.990 ,,,,,
9,1,18,-45,1.20 ,1,1,1,3.950 ,,,,,
9,1,19,30,0.80 ,1,1,0,4.320 ,,,,,
9,1,20,45,1.00 ,2,-1,0,6.530 ,,,,,
9,1,21,30,1.20 ,2,-1,0,3.710 ,,,,,
9,1,22,-30,1.00 ,2,-1,1,3.680 ,,,,,
9,1,23,15,1.00 ,1,1,1,3.650 ,,,,,
9,1,24,30,0.80 ,2,-1,1,3.800 ,,,,,
9,1,25,30,1.00 ,2,-1,1,3.880 ,,,,,
9,1,26,-45,0.80 ,1,1,1,3.710 ,,,,,
9,1,27,-15,0.80 ,1,1,1,3.740 ,,,,,
9,1,28,0,0.80 ,1,1,1,3.850 ,,,,,
9,1,29,15,0.80 ,1,1,1,3.790 ,,,,,
9,1,30,0,0.80 ,2,-1,1,3.720 ,,,,,
9,1,31,-15,0.80 ,2,-1,1,3.630 ,,,,,
9,1,32,15,1.20 ,1,1,1,3.820 ,,,,,
9,1,33,-15,1.00 ,2,-1,1,3.660 ,,,,,
9,1,34,0,1.20 ,2,-1,1,3.890 ,,,,,
9,1,35,30,1.20 ,1,1,1,4.210 ,,,,,
9,1,36,0,1.00 ,1,1,1,3.640 ,,,,,
9,1,37,45,1.20 ,1,1,1,3.750 ,,,,,
9,1,38,-30,1.00 ,1,1,1,3.610 ,,,,,
9,1,39,-45,0.80 ,2,-1,1,3.670 ,,,,,
9,1,40,0,1.00 ,2,-1,1,3.830 ,,,,,
9,1,41,-15,1.20 ,1,1,1,3.700 ,,,,,
9,1,42,30,1.00 ,1,1,1,4.330 ,,,,,
9,2,1,-45,0.80 ,1,1,0,4.290 ,,,,,
9,2,2,45,1.00 ,2,-1,1,3.720 ,,,,,
9,2,3,0,1.20 ,1,1,1,3.960 ,,,,,
9,2,4,-45,0.80 ,2,-1,1,4.170 ,,,,,
9,2,5,0,1.20 ,2,-1,1,3.680 ,,,,,
9,2,6,-30,1.00 ,2,-1,1,3.680 ,,,,,
9,2,7,0,1.00 ,2,-1,1,3.620 ,,,,,
9,2,8,-15,1.20 ,2,-1,1,3.460 ,,,,,
9,2,9,-30,0.80 ,2,-1,1,3.860 ,,,,,
9,2,10,-15,1.00 ,1,1,1,3.570 ,,,,,
9,2,11,-30,1.20 ,1,1,1,4.390 ,,,,,
9,2,12,15,1.00 ,1,1,1,3.720 ,,,,,
9,2,13,30,1.20 ,2,-1,1,3.740 ,,,,,
9,2,14,30,0.80 ,2,-1,1,4.280 ,,,,,
9,2,15,45,1.20 ,1,1,1,3.660 ,,,,,
9,2,16,-45,1.00 ,2,-1,1,3.630 ,,,,,
9,2,17,15,1.00 ,2,-1,1,3.970 ,,,,,
9,2,18,-15,0.80 ,2,-1,1,3.700 ,,,,,
9,2,19,15,0.80 ,2,-1,1,3.560 ,,,,,
9,2,20,-15,1.00 ,2,-1,1,3.540 ,,,,,
9,2,21,0,1.00 ,1,1,1,3.380 ,,,,,
9,2,22,-45,1.20 ,2,-1,1,4.100 ,,,,,
9,2,23,30,0.80 ,1,1,1,3.610 ,,,,,
9,2,24,-30,1.00 ,1,1,1,3.660 ,,,,,
9,2,25,30,1.00 ,2,-1,1,3.650 ,,,,,
9,2,26,45,1.00 ,1,1,0,3.660 ,,,,,
9,2,27,0,0.80 ,2,-1,1,3.650 ,,,,,
9,2,28,15,0.80 ,1,1,0,3.710 ,,,,,
9,2,29,-45,1.20 ,1,1,1,3.650 ,,,,,
9,2,30,-30,0.80 ,1,1,1,3.660 ,,,,,
9,2,31,-45,1.00 ,1,1,1,3.600 ,,,,,
9,2,32,-30,1.20 ,2,-1,1,3.580 ,,,,,
9,2,33,30,1.20 ,1,1,1,3.660 ,,,,,
9,2,34,45,0.80 ,2,-1,1,3.650 ,,,,,
9,2,35,15,1.20 ,2,-1,1,3.630 ,,,,,
9,2,36,45,1.20 ,2,-1,1,4.040 ,,,,,
9,2,37,15,1.20 ,1,1,1,3.660 ,,,,,
9,2,38,-15,0.80 ,1,1,1,3.610 ,,,,,
9,2,39,45,0.80 ,1,1,0,3.630 ,,,,,
9,2,40,-15,1.20 ,1,1,0,3.600 ,,,,,
9,2,41,0,0.80 ,1,1,0,3.730 ,,,,,
9,2,42,30,1.00 ,1,1,0,3.620 ,,,,,
9,3,1,-30,1.00 ,2,-1,1,3.600 ,,,,,
9,3,2,0,1.00 ,2,-1,1,3.600 ,,,,,
9,3,3,45,1.00 ,2,-1,1,3.600 ,,,,,
9,3,4,-45,1.20 ,2,-1,1,3.630 ,,,,,
9,3,5,-15,1.20 ,2,-1,1,3.770 ,,,,,
9,3,6,-15,0.80 ,2,-1,1,3.760 ,,,,,
9,3,7,-45,1.00 ,2,-1,1,3.610 ,,,,,
9,3,8,0,1.20 ,1,1,0,3.640 ,,,,,
9,3,9,30,0.80 ,2,-1,1,3.580 ,,,,,
9,3,10,15,0.80 ,1,1,1,3.510 ,,,,,
9,3,11,15,1.20 ,1,1,1,3.590 ,,,,,
9,3,12,-45,0.80 ,2,-1,1,3.620 ,,,,,
9,3,13,15,0.80 ,2,-1,1,3.600 ,,,,,
9,3,14,45,0.80 ,2,-1,1,3.750 ,,,,,
9,3,15,45,1.00 ,1,1,1,3.620 ,,,,,
9,3,16,0,0.80 ,2,-1,1,3.610 ,,,,,
9,3,17,15,1.00 ,1,1,1,3.620 ,,,,,
9,3,18,30,1.00 ,2,-1,1,3.620 ,,,,,
9,3,19,-45,1.20 ,1,1,1,3.600 ,,,,,
9,3,20,-30,0.80 ,1,1,1,3.660 ,,,,,
9,3,21,45,1.20 ,2,-1,1,3.630 ,,,,,
9,3,22,30,1.20 ,2,-1,1,3.450 ,,,,,
9,3,23,-15,1.20 ,1,1,1,3.510 ,,,,,
9,3,24,-45,0.80 ,1,1,1,3.760 ,,,,,
9,3,25,30,1.00 ,1,1,1,4.300 ,,,,,
9,3,26,0,0.80 ,1,1,1,6.080 ,,,,,
9,3,27,-15,1.00 ,2,-1,1,3.680 ,,,,,
9,3,28,30,1.20 ,1,1,0,3.880 ,,,,,
9,3,29,-30,1.20 ,1,1,1,3.590 ,,,,,
9,3,30,-30,0.80 ,2,-1,1,3.930 ,,,,,
9,3,31,15,1.00 ,2,-1,0,3.780 ,,,,,
9,3,32,-15,1.00 ,1,1,1,3.650 ,,,,,
9,3,33,45,1.20 ,1,1,1,3.570 ,,,,,
9,3,34,-30,1.00 ,1,1,1,3.600 ,,,,,
9,3,35,0,1.00 ,1,1,1,3.390 ,,,,,
9,3,36,-30,1.20 ,2,-1,1,3.830 ,,,,,
9,3,37,15,1.20 ,2,-1,1,3.590 ,,,,,
9,3,38,-45,1.00 ,1,1,1,3.650 ,,,,,
9,3,39,0,1.20 ,2,-1,1,3.540 ,,,,,
9,3,40,45,0.80 ,1,1,1,3.700 ,,,,,
9,3,41,30,0.80 ,1,1,0,3.930 ,,,,,
9,3,42,-15,0.80 ,1,1,1,3.600 ,,,,,
10,1,1,-15,1.20 ,1,1,0,4.230 ,,,,,
10,1,2,30,0.80 ,1,1,0,3.930 ,,,,,
10,1,3,15,0.80 ,1,1,0,3.660 ,,,,,
10,1,4,45,0.80 ,2,-1,1,3.680 ,,,,,
10,1,5,-45,0.80 ,1,1,1,3.660 ,,,,,
10,1,6,0,1.20 ,2,-1,0,3.920 ,,,,,
10,1,7,45,1.00 ,2,-1,1,3.760 ,,,,,
10,1,8,-30,0.80 ,1,1,1,3.630 ,,,,,
10,1,9,-15,0.80 ,1,1,1,4.260 ,,,,,
10,1,10,-45,0.80 ,2,-1,1,3.710 ,,,,,
10,1,11,15,0.80 ,2,-1,1,3.680 ,,,,,
10,1,12,15,1.20 ,2,-1,0,3.490 ,,,,,
10,1,13,0,1.00 ,2,-1,0,3.430 ,,,,,
10,1,14,-15,1.20 ,2,-1,1,3.710 ,,,,,
10,1,15,0,0.80 ,2,-1,0,3.620 ,,,,,
10,1,16,-30,1.00 ,2,-1,1,3.810 ,,,,,
10,1,17,45,1.00 ,1,1,1,3.630 ,,,,,
10,1,18,30,1.00 ,2,-1,1,3.800 ,,,,,
10,1,19,30,1.00 ,1,1,1,5.730 ,,,,,
10,1,20,45,1.20 ,1,1,1,3.620 ,,,,,
10,1,21,-45,1.00 ,1,1,1,3.600 ,,,,,
10,1,22,-15,1.00 ,1,1,1,3.660 ,,,,,
10,1,23,15,1.00 ,2,-1,1,3.630 ,,,,,
10,1,24,-15,1.00 ,2,-1,1,3.580 ,,,,,
10,1,25,30,1.20 ,1,1,1,3.500 ,,,,,
10,1,26,0,1.20 ,1,1,1,10.600 ,,,,,
10,1,27,30,0.80 ,2,-1,1,3.600 ,,,,,
10,1,28,15,1.00 ,1,1,1,3.610 ,,,,,
10,1,29,-30,1.00 ,1,1,1,3.370 ,,,,,
10,1,30,45,1.20 ,2,-1,1,3.600 ,,,,,
10,1,31,-15,0.80 ,2,-1,1,3.600 ,,,,,
10,1,32,-45,1.00 ,2,-1,1,3.630 ,,,,,
10,1,33,-30,1.20 ,2,-1,1,3.650 ,,,,,
10,1,34,0,1.00 ,1,1,1,6.930 ,,,,,
10,1,35,15,1.20 ,1,1,1,4.210 ,,,,,
10,1,36,-45,1.20 ,1,1,1,3.680 ,,,,,
10,1,37,30,1.20 ,2,-1,1,3.600 ,,,,,
10,1,38,-45,1.20 ,2,-1,1,3.610 ,,,,,
10,1,39,0,0.80 ,1,1,1,3.610 ,,,,,
10,1,40,-30,0.80 ,2,-1,1,3.620 ,,,,,
10,1,41,-30,1.20 ,1,1,1,3.620 ,,,,,
10,1,42,45,0.80 ,1,1,1,3.630 ,,,,,
10,2,1,0,0.80 ,1,1,1,3.630 ,,,,,
10,2,2,0,0.80 ,2,-1,1,3.600 ,,,,,
10,2,3,-30,0.80 ,1,1,1,4.260 ,,,,,
10,2,4,45,1.00 ,2,-1,1,3.590 ,,,,,
10,2,5,15,1.20 ,1,1,1,3.600 ,,,,,
10,2,6,15,1.00 ,1,1,1,3.580 ,,,,,
10,2,7,30,1.20 ,2,-1,1,3.630 ,,,,,
10,2,8,15,1.20 ,2,-1,1,3.600 ,,,,,
10,2,9,-15,0.80 ,2,-1,1,3.620 ,,,,,
10,2,10,45,1.00 ,1,1,1,3.580 ,,,,,
10,2,11,-45,1.00 ,1,1,1,3.610 ,,,,,
10,2,12,-30,1.00 ,1,1,1,3.650 ,,,,,
10,2,13,15,1.00 ,2,-1,1,3.680 ,,,,,
10,2,14,30,0.80 ,1,1,1,3.640 ,,,,,
10,2,15,30,1.00 ,1,1,1,3.600 ,,,,,
10,2,16,-30,1.00 ,2,-1,0,9.940 ,,,,,
10,2,17,-45,0.80 ,1,1,1,3.900 ,,,,,
10,2,18,-45,1.20 ,1,1,0,3.480 ,,,,,
10,2,19,30,0.80 ,2,-1,1,3.370 ,,,,,
10,2,20,-15,1.20 ,2,-1,1,3.360 ,,,,,
10,2,21,45,1.20 ,1,1,1,3.360 ,,,,,
10,2,22,-15,0.80 ,1,1,1,4.770 ,,,,,
10,2,23,-30,1.20 ,2,-1,1,3.600 ,,,,,
10,2,24,0,1.20 ,2,-1,1,3.360 ,,,,,
10,2,25,0,1.00 ,2,-1,1,3.990 ,,,,,
10,2,26,-15,1.00 ,1,1,1,4.540 ,,,,,
10,2,27,-15,1.00 ,2,-1,1,3.650 ,,,,,
10,2,28,30,1.20 ,1,1,1,3.610 ,,,,,
10,2,29,0,1.20 ,1,1,1,5.430 ,,,,,
10,2,30,45,0.80 ,2,-1,1,3.570 ,,,,,
10,2,31,15,0.80 ,1,1,1,3.650 ,,,,,
10,2,32,-30,0.80 ,2,-1,1,3.710 ,,,,,
10,2,33,-45,0.80 ,2,-1,1,4.160 ,,,,,
10,2,34,30,1.00 ,2,-1,1,3.640 ,,,,,
10,2,35,-30,1.20 ,1,1,1,3.610 ,,,,,
10,2,36,-45,1.00 ,2,-1,1,3.580 ,,,,,
10,2,37,45,0.80 ,1,1,1,3.610 ,,,,,
10,2,38,45,1.20 ,2,-1,1,3.590 ,,,,,
10,2,39,-15,1.20 ,1,1,1,3.570 ,,,,,
10,2,40,15,0.80 ,2,-1,1,3.760 ,,,,,
10,2,41,-45,1.20 ,2,-1,1,3.690 ,,,,,
10,2,42,0,1.00 ,1,1,1,3.710 ,,,,,
10,3,1,-15,1.00 ,1,1,1,3.650 ,,,,,
10,3,2,-15,1.20 ,2,-1,1,4.130 ,,,,,
10,3,3,0,0.80 ,1,1,1,3.630 ,,,,,
10,3,4,-15,1.20 ,1,1,1,3.690 ,,,,,
10,3,5,30,1.00 ,2,-1,1,3.720 ,,,,,
10,3,6,-15,0.80 ,1,1,1,3.690 ,,,,,
10,3,7,15,0.80 ,2,-1,1,3.580 ,,,,,
10,3,8,45,1.00 ,1,1,1,3.580 ,,,,,
10,3,9,30,0.80 ,1,1,1,3.610 ,,,,,
10,3,10,-15,0.80 ,2,-1,1,3.580 ,,,,,
10,3,11,30,1.20 ,2,-1,1,3.640 ,,,,,
10,3,12,-30,1.20 ,2,-1,1,3.630 ,,,,,
10,3,13,45,1.20 ,1,1,1,5.480 ,,,,,
10,3,14,0,1.20 ,2,-1,1,3.570 ,,,,,
10,3,15,45,0.80 ,1,1,1,3.690 ,,,,,
10,3,16,-30,0.80 ,1,1,1,3.370 ,,,,,
10,3,17,15,1.20 ,2,-1,1,3.650 ,,,,,
10,3,18,15,0.80 ,1,1,1,3.660 ,,,,,
10,3,19,-45,0.80 ,1,1,1,3.600 ,,,,,
10,3,20,-45,0.80 ,2,-1,1,3.740 ,,,,,
10,3,21,-45,1.00 ,2,-1,0,3.570 ,,,,,
10,3,22,0,0.80 ,2,-1,1,3.850 ,,,,,
10,3,23,30,0.80 ,2,-1,1,3.600 ,,,,,
10,3,24,45,1.20 ,2,-1,1,3.360 ,,,,,
10,3,25,0,1.00 ,2,-1,1,3.650 ,,,,,
10,3,26,15,1.20 ,1,1,1,3.540 ,,,,,
10,3,27,45,0.80 ,2,-1,1,3.600 ,,,,,
10,3,28,0,1.20 ,1,1,1,3.730 ,,,,,
10,3,29,-45,1.20 ,1,1,1,3.480 ,,,,,
10,3,30,15,1.00 ,2,-1,1,3.420 ,,,,,
10,3,31,-30,1.00 ,1,1,1,3.540 ,,,,,
10,3,32,-30,1.00 ,2,-1,1,3.650 ,,,,,
10,3,33,-30,1.20 ,1,1,1,3.420 ,,,,,
10,3,34,45,1.00 ,2,-1,1,3.670 ,,,,,
10,3,35,30,1.00 ,1,1,1,3.650 ,,,,,
10,3,36,-45,1.00 ,1,1,1,3.690 ,,,,,
10,3,37,-30,0.80 ,2,-1,1,3.740 ,,,,,
10,3,38,-15,1.00 ,2,-1,1,3.550 ,,,,,
10,3,39,15,1.00 ,1,1,1,3.580 ,,,,,
10,3,40,-45,1.20 ,2,-1,1,3.360 ,,,,,
10,3,41,30,1.20 ,1,1,1,3.380 ,,,,,
10,3,42,0,1.00 ,1,1,1,3.620 ,,,,,
11,1,1,-30,1.20 ,2,-1,1,3.790 ,,,,,
11,1,2,-30,1.00 ,1,1,1,3.480 ,,,,,
11,1,3,0,0.80 ,1,1,1,3.660 ,,,,,
11,1,4,0,1.20 ,1,1,1,3.530 ,,,,,
11,1,5,0,1.00 ,2,-1,1,3.370 ,,,,,
11,1,6,30,0.80 ,1,1,1,3.380 ,,,,,
11,1,7,15,1.00 ,2,-1,0,6.120 ,,,,,
11,1,8,-30,1.20 ,1,1,0,3.370 ,,,,,
11,1,9,-15,1.00 ,1,1,0,3.370 ,,,,,
11,1,10,45,1.00 ,1,1,0,3.370 ,,,,,
11,1,11,15,1.20 ,2,-1,1,3.650 ,,,,,
11,1,12,15,1.20 ,1,1,0,3.370 ,,,,,
11,1,13,-45,0.80 ,1,1,0,3.630 ,,,,,
11,1,14,30,0.80 ,2,-1,1,3.500 ,,,,,
11,1,15,45,1.00 ,2,-1,1,3.480 ,,,,,
11,1,16,45,1.20 ,2,-1,1,3.370 ,,,,,
11,1,17,0,1.20 ,2,-1,1,3.370 ,,,,,
11,1,18,30,1.20 ,2,-1,1,3.450 ,,,,,
11,1,19,-15,1.20 ,1,1,0,3.380 ,,,,,
11,1,20,30,1.00 ,1,1,0,3.620 ,,,,,
11,1,21,-45,1.20 ,2,-1,0,3.600 ,,,,,
11,1,22,-15,0.80 ,1,1,1,3.590 ,,,,,
11,1,23,-45,1.20 ,1,1,0,3.370 ,,,,,
11,1,24,15,0.80 ,1,1,0,3.580 ,,,,,
11,1,25,45,0.80 ,1,1,0,3.600 ,,,,,
11,1,26,-45,1.00 ,2,-1,0,3.370 ,,,,,
11,1,27,0,1.00 ,1,1,0,3.620 ,,,,,
11,1,28,-15,0.80 ,2,-1,1,3.380 ,,,,,
11,1,29,30,1.00 ,2,-1,1,3.630 ,,,,,
11,1,30,-30,0.80 ,2,-1,1,3.580 ,,,,,
11,1,31,45,1.20 ,1,1,1,3.620 ,,,,,
11,1,32,-45,1.00 ,1,1,1,3.530 ,,,,,
11,1,33,0,0.80 ,2,-1,1,3.600 ,,,,,
11,1,34,15,0.80 ,2,-1,1,3.370 ,,,,,
11,1,35,15,1.00 ,1,1,0,3.600 ,,,,,
11,1,36,45,0.80 ,2,-1,1,3.500 ,,,,,
11,1,37,30,1.20 ,1,1,0,3.370 ,,,,,
11,1,38,-15,1.20 ,2,-1,1,3.360 ,,,,,
11,1,39,-15,1.00 ,2,-1,1,3.590 ,,,,,
11,1,40,-30,0.80 ,1,1,0,3.640 ,,,,,
11,1,41,-30,1.00 ,2,-1,0,3.630 ,,,,,
11,1,42,-45,0.80 ,2,-1,0,3.650 ,,,,,
11,2,1,-15,1.00 ,2,-1,1,3.650 ,,,,,
11,2,2,-15,1.00 ,1,1,0,3.560 ,,,,,
11,2,3,15,1.00 ,2,-1,1,3.370 ,,,,,
11,2,4,45,1.20 ,1,1,0,4.620 ,,,,,
11,2,5,45,1.00 ,1,1,1,3.590 ,,,,,
11,2,6,45,0.80 ,1,1,0,3.410 ,,,,,
11,2,7,15,1.20 ,1,1,1,3.530 ,,,,,
11,2,8,-45,0.80 ,2,-1,1,3.370 ,,,,,
11,2,9,-45,1.00 ,2,-1,1,3.600 ,,,,,
11,2,10,45,1.20 ,2,-1,1,3.560 ,,,,,
11,2,11,-30,1.00 ,2,-1,1,3.600 ,,,,,
11,2,12,-30,1.00 ,1,1,0,3.430 ,,,,,
11,2,13,0,1.00 ,1,1,0,3.570 ,,,,,
11,2,14,30,1.20 ,1,1,1,3.530 ,,,,,
11,2,15,-15,0.80 ,2,-1,1,3.450 ,,,,,
11,2,16,-45,1.00 ,1,1,1,3.470 ,,,,,
11,2,17,15,0.80 ,2,-1,1,3.360 ,,,,,
11,2,18,-15,1.20 ,2,-1,1,3.620 ,,,,,
11,2,19,-45,1.20 ,1,1,0,3.550 ,,,,,
11,2,20,-15,0.80 ,1,1,0,3.390 ,,,,,
11,2,21,30,0.80 ,1,1,0,3.610 ,,,,,
11,2,22,-30,1.20 ,2,-1,1,3.540 ,,,,,
11,2,23,0,1.00 ,2,-1,1,3.370 ,,,,,
11,2,24,30,1.20 ,2,-1,1,3.480 ,,,,,
11,2,25,15,1.20 ,2,-1,1,3.370 ,,,,,
11,2,26,0,0.80 ,2,-1,1,3.420 ,,,,,
11,2,27,45,0.80 ,2,-1,1,3.470 ,,,,,
11,2,28,30,1.00 ,1,1,0,3.430 ,,,,,
11,2,29,15,1.00 ,1,1,0,3.370 ,,,,,
11,2,30,0,1.20 ,2,-1,1,3.600 ,,,,,
11,2,31,-30,1.20 ,1,1,1,3.580 ,,,,,
11,2,32,0,1.20 ,1,1,0,3.360 ,,,,,
11,2,33,45,1.00 ,2,-1,1,3.370 ,,,,,
11,2,34,-45,1.20 ,2,-1,1,3.380 ,,,,,
11,2,35,-30,0.80 ,2,-1,1,3.530 ,,,,,
11,2,36,30,0.80 ,2,-1,1,3.550 ,,,,,
11,2,37,-45,0.80 ,1,1,0,3.360 ,,,,,
11,2,38,15,0.80 ,1,1,0,3.460 ,,,,,
11,2,39,30,1.00 ,2,-1,1,3.370 ,,,,,
11,2,40,-15,1.20 ,1,1,0,3.370 ,,,,,
11,2,41,0,0.80 ,1,1,0,3.500 ,,,,,
11,2,42,-30,0.80 ,1,1,0,3.370 ,,,,,
11,3,1,15,1.20 ,2,-1,1,3.740 ,,,,,
11,3,2,15,1.20 ,1,1,0,3.370 ,,,,,
11,3,3,-15,1.20 ,1,1,0,3.570 ,,,,,
11,3,4,-30,1.20 ,2,-1,1,3.580 ,,,,,
11,3,5,45,1.00 ,2,-1,1,3.570 ,,,,,
11,3,6,30,1.20 ,2,-1,1,3.470 ,,,,,
11,3,7,30,0.80 ,1,1,0,3.510 ,,,,,
11,3,8,15,1.00 ,1,1,0,3.380 ,,,,,
11,3,9,-45,0.80 ,1,1,1,3.550 ,,,,,
11,3,10,-15,1.00 ,1,1,0,3.370 ,,,,,
11,3,11,-30,0.80 ,1,1,1,3.520 ,,,,,
11,3,12,-45,1.00 ,2,-1,1,3.570 ,,,,,
11,3,13,-15,0.80 ,2,-1,1,3.370 ,,,,,
11,3,14,45,1.20 ,1,1,0,3.640 ,,,,,
11,3,15,0,1.20 ,2,-1,1,3.370 ,,,,,
11,3,16,-15,1.00 ,2,-1,1,3.380 ,,,,,
11,3,17,30,0.80 ,2,-1,1,3.400 ,,,,,
11,3,18,0,1.00 ,1,1,0,3.590 ,,,,,
11,3,19,45,1.20 ,2,-1,1,3.490 ,,,,,
11,3,20,15,0.80 ,1,1,0,3.500 ,,,,,
11,3,21,-30,1.20 ,1,1,0,3.580 ,,,,,
11,3,22,30,1.00 ,2,-1,1,3.550 ,,,,,
11,3,23,15,1.00 ,2,-1,1,3.420 ,,,,,
11,3,24,-15,1.20 ,2,-1,1,3.550 ,,,,,
11,3,25,-30,1.00 ,2,-1,1,3.370 ,,,,,
11,3,26,0,0.80 ,2,-1,1,3.480 ,,,,,
11,3,27,0,0.80 ,1,1,0,3.430 ,,,,,
11,3,28,-30,0.80 ,2,-1,1,3.460 ,,,,,
11,3,29,15,0.80 ,2,-1,1,3.460 ,,,,,
11,3,30,-15,0.80 ,1,1,0,3.610 ,,,,,
11,3,31,30,1.00 ,1,1,0,3.370 ,,,,,
11,3,32,-45,1.20 ,1,1,0,3.520 ,,,,,
11,3,33,-45,1.00 ,1,1,1,3.570 ,,,,,
11,3,34,-45,0.80 ,2,-1,1,3.640 ,,,,,
11,3,35,-45,1.20 ,2,-1,1,3.400 ,,,,,
11,3,36,45,0.80 ,2,-1,1,3.430 ,,,,,
11,3,37,45,0.80 ,1,1,0,3.390 ,,,,,
11,3,38,-30,1.00 ,1,1,0,3.630 ,,,,,
11,3,39,45,1.00 ,1,1,0,3.440 ,,,,,
11,3,40,0,1.20 ,1,1,0,3.370 ,,,,,
11,3,41,30,1.20 ,1,1,0,3.560 ,,,,,
11,3,42,0,1.00 ,2,-1,1,3.410 ,,,,,
12,1,1,30,0.80 ,1,1,0,4.340 ,,,,,
12,1,2,45,1.20 ,1,1,0,4.430 ,,,,,
12,1,3,30,1.00 ,2,-1,1,3.730 ,,,,,
12,1,4,15,1.20 ,2,-1,1,4.730 ,,,,,
12,1,5,-15,1.00 ,1,1,0,6.150 ,,,,,
12,1,6,30,1.20 ,1,1,1,4.830 ,,,,,
12,1,7,-15,1.20 ,1,1,1,5.180 ,,,,,
12,1,8,15,1.00 ,1,1,0,6.120 ,,,,,
12,1,9,15,1.20 ,1,1,1,4.960 ,,,,,
12,1,10,15,0.80 ,1,1,1,4.340 ,,,,,
12,1,11,-15,0.80 ,1,1,1,4.420 ,,,,,
12,1,12,15,1.00 ,2,-1,0,4.680 ,,,,,
12,1,13,-45,0.80 ,2,-1,1,4.220 ,,,,,
12,1,14,-45,1.20 ,1,1,1,4.060 ,,,,,
12,1,15,0,1.00 ,2,-1,0,6.440 ,,,,,
12,1,16,-45,1.00 ,1,1,1,4.690 ,,,,,
12,1,17,-30,1.00 ,1,1,1,4.370 ,,,,,
12,1,18,-30,1.20 ,1,1,1,4.420 ,,,,,
12,1,19,45,1.20 ,2,-1,0,5.680 ,,,,,
12,1,20,-15,0.80 ,2,-1,0,5.390 ,,,,,
12,1,21,-30,1.00 ,2,-1,0,5.490 ,,,,,
12,1,22,45,0.80 ,1,1,0,5.390 ,,,,,
12,1,23,45,1.00 ,2,-1,0,6.760 ,,,,,
12,1,24,30,0.80 ,2,-1,1,4.280 ,,,,,
12,1,25,-45,0.80 ,1,1,0,5.530 ,,,,,
12,1,26,15,0.80 ,2,-1,0,7.150 ,,,,,
12,1,27,30,1.20 ,2,-1,1,4.490 ,,,,,
12,1,28,0,1.20 ,1,1,0,5.410 ,,,,,
12,1,29,45,1.00 ,1,1,0,4.390 ,,,,,
12,1,30,0,0.80 ,1,1,1,7.350 ,,,,,
12,1,31,-15,1.00 ,2,-1,0,6.160 ,,,,,
12,1,32,-30,0.80 ,1,1,0,5.650 ,,,,,
12,1,33,-45,1.00 ,2,-1,0,4.020 ,,,,,
12,1,34,-45,1.20 ,2,-1,1,8.430 ,,,,,
12,1,35,0,1.20 ,2,-1,1,4.950 ,,,,,
12,1,36,-15,1.20 ,2,-1,1,3.840 ,,,,,
12,1,37,45,0.80 ,2,-1,1,5.300 ,,,,,
12,1,38,-30,0.80 ,2,-1,1,4.600 ,,,,,
12,1,39,-30,1.20 ,2,-1,1,4.440 ,,,,,
12,1,40,30,1.00 ,1,1,0,4.450 ,,,,,
12,1,41,0,0.80 ,2,-1,1,4.470 ,,,,,
12,1,42,0,1.00 ,1,1,0,6.390 ,,,,,
12,2,1,-45,0.80 ,2,-1,1,5.310 ,,,,,
12,2,2,15,0.80 ,2,-1,0,4.150 ,,,,,
12,2,3,45,1.20 ,1,1,1,4.920 ,,,,,
12,2,4,-15,0.80 ,1,1,1,4.390 ,,,,,
12,2,5,-15,1.00 ,1,1,0,4.200 ,,,,,
12,2,6,45,1.00 ,2,-1,0,4.490 ,,,,,
12,2,7,-45,0.80 ,1,1,0,4.450 ,,,,,
12,2,8,-15,1.20 ,1,1,0,4.940 ,,,,,
12,2,9,45,0.80 ,2,-1,0,4.590 ,,,,,
12,2,10,0,1.00 ,1,1,0,3.710 ,,,,,
12,2,11,15,1.20 ,1,1,0,4.010 ,,,,,
12,2,12,15,1.00 ,2,-1,0,3.610 ,,,,,
12,2,13,30,1.00 ,2,-1,1,6.030 ,,,,,
12,2,14,-30,0.80 ,1,1,0,11.400 ,,,,,
12,2,15,-45,1.20 ,2,-1,1,6.110 ,,,,,
12,2,16,-30,1.00 ,1,1,1,6.860 ,,,,,
12,2,17,0,1.20 ,1,1,0,4.620 ,,,,,
12,2,18,45,1.00 ,1,1,0,8.550 ,,,,,
12,2,19,30,0.80 ,1,1,0,4.510 ,,,,,
12,2,20,30,1.00 ,1,1,0,4.560 ,,,,,
12,2,21,-45,1.00 ,1,1,1,3.870 ,,,,,
12,2,22,-45,1.20 ,1,1,1,3.660 ,,,,,
12,2,23,-30,1.20 ,2,-1,1,4.200 ,,,,,
12,2,24,30,1.20 ,2,-1,1,4.060 ,,,,,
12,2,25,15,1.20 ,2,-1,0,4.260 ,,,,,
12,2,26,-30,0.80 ,2,-1,0,5.280 ,,,,,
12,2,27,-30,1.00 ,2,-1,1,4.740 ,,,,,
12,2,28,-30,1.20 ,1,1,1,5.050 ,,,,,
12,2,29,45,1.20 ,2,-1,1,3.640 ,,,,,
12,2,30,0,0.80 ,1,1,1,3.660 ,,,,,
12,2,31,-45,1.00 ,2,-1,1,3.610 ,,,,,
12,2,32,-15,0.80 ,2,-1,0,5.550 ,,,,,
12,2,33,0,1.00 ,2,-1,1,4.090 ,,,,,
12,2,34,30,0.80 ,2,-1,1,3.530 ,,,,,
12,2,35,30,1.20 ,1,1,1,4.040 ,,,,,
12,2,36,15,0.80 ,1,1,0,4.350 ,,,,,
12,2,37,-15,1.00 ,2,-1,1,4.900 ,,,,,
12,2,38,-15,1.20 ,2,-1,1,3.890 ,,,,,
12,2,39,0,1.20 ,2,-1,1,3.820 ,,,,,
12,2,40,0,0.80 ,2,-1,1,3.570 ,,,,,
12,2,41,15,1.00 ,1,1,0,4.680 ,,,,,
12,2,42,45,0.80 ,1,1,0,4.220 ,,,,,
12,3,1,15,1.00 ,1,1,0,3.630 ,,,,,
12,3,2,-30,1.00 ,1,1,0,4.260 ,,,,,
12,3,3,-30,1.20 ,1,1,1,4.390 ,,,,,
12,3,4,-30,0.80 ,1,1,0,4.630 ,,,,,
12,3,5,-45,1.20 ,2,-1,1,4.240 ,,,,,
12,3,6,15,0.80 ,2,-1,1,4.960 ,,,,,
12,3,7,-30,0.80 ,2,-1,1,4.250 ,,,,,
12,3,8,-15,1.20 ,2,-1,1,4.580 ,,,,,
12,3,9,15,1.20 ,2,-1,1,4.420 ,,,,,
12,3,10,30,1.00 ,2,-1,1,3.610 ,,,,,
12,3,11,0,0.80 ,2,-1,1,3.620 ,,,,,
12,3,12,-45,0.80 ,2,-1,1,3.690 ,,,,,
12,3,13,-15,1.00 ,2,-1,1,3.600 ,,,,,
12,3,14,30,0.80 ,1,1,0,3.690 ,,,,,
12,3,15,0,1.00 ,2,-1,1,3.930 ,,,,,
12,3,16,0,1.20 ,1,1,0,3.570 ,,,,,
12,3,17,45,1.00 ,1,1,0,3.610 ,,,,,
12,3,18,-15,1.00 ,1,1,0,3.640 ,,,,,
12,3,19,-15,0.80 ,2,-1,1,3.580 ,,,,,
12,3,20,15,0.80 ,1,1,0,3.800 ,,,,,
12,3,21,15,1.20 ,1,1,0,3.360 ,,,,,
12,3,22,45,1.20 ,2,-1,1,3.410 ,,,,,
12,3,23,0,0.80 ,1,1,0,3.360 ,,,,,
12,3,24,45,0.80 ,2,-1,1,4.860 ,,,,,
12,3,25,-45,0.80 ,1,1,0,3.800 ,,,,,
12,3,26,0,1.20 ,2,-1,1,3.550 ,,,,,
12,3,27,-45,1.00 ,1,1,0,4.510 ,,,,,
12,3,28,45,1.00 ,2,-1,1,4.240 ,,,,,
12,3,29,-15,0.80 ,1,1,1,7.970 ,,,,,
12,3,30,-15,1.20 ,1,1,1,5.160 ,,,,,
12,3,31,30,0.80 ,2,-1,1,3.990 ,,,,,
12,3,32,-30,1.00 ,2,-1,1,3.580 ,,,,,
12,3,33,0,1.00 ,1,1,0,4.250 ,,,,,
12,3,34,30,1.20 ,1,1,0,3.670 ,,,,,
12,3,35,45,0.80 ,1,1,0,3.580 ,,,,,
12,3,36,30,1.00 ,1,1,0,3.590 ,,,,,
12,3,37,-45,1.20 ,1,1,1,4.320 ,,,,,
12,3,38,-45,1.00 ,2,-1,1,4.520 ,,,,,
12,3,39,-30,1.20 ,2,-1,0,3.730 ,,,,,
12,3,40,45,1.20 ,1,1,0,5.240 ,,,,,
12,3,41,30,1.20 ,2,-1,1,4.190 ,,,,,
12,3,42,15,1.00 ,2,-1,1,5.130 ,,,,,
13,1,1,30,1.00 ,2,-1,1,4.200 ,,,,,
13,1,2,15,0.80 ,1,1,0,4.180 ,,,,,
13,1,3,30,0.80 ,1,1,0,3.380 ,,,,,
13,1,4,15,1.00 ,2,-1,1,3.370 ,,,,,
13,1,5,-15,0.80 ,2,-1,1,3.370 ,,,,,
13,1,6,45,1.00 ,1,1,1,3.450 ,,,,,
13,1,7,0,1.20 ,2,-1,1,4.660 ,,,,,
13,1,8,0,1.00 ,1,1,1,3.750 ,,,,,
13,1,9,-45,1.20 ,1,1,1,3.860 ,,,,,
13,1,10,-30,1.00 ,1,1,1,3.690 ,,,,,
13,1,11,30,1.20 ,2,-1,0,4.080 ,,,,,
13,1,12,45,0.80 ,1,1,0,3.680 ,,,,,
13,1,13,-30,1.00 ,2,-1,1,3.900 ,,,,,
13,1,14,-30,1.20 ,2,-1,1,3.990 ,,,,,
13,1,15,30,1.00 ,1,1,0,3.710 ,,,,,
13,1,16,0,1.20 ,1,1,1,3.820 ,,,,,
13,1,17,15,0.80 ,2,-1,1,3.670 ,,,,,
13,1,18,-15,1.20 ,1,1,0,4.640 ,,,,,
13,1,19,0,0.80 ,2,-1,1,5.060 ,,,,,
13,1,20,45,1.00 ,2,-1,0,4.460 ,,,,,
13,1,21,45,1.20 ,2,-1,0,3.680 ,,,,,
13,1,22,0,0.80 ,1,1,1,3.840 ,,,,,
13,1,23,45,1.20 ,1,1,1,3.690 ,,,,,
13,1,24,30,1.20 ,1,1,0,4.120 ,,,,,
13,1,25,-15,1.20 ,2,-1,0,3.640 ,,,,,
13,1,26,-30,1.20 ,1,1,1,3.700 ,,,,,
13,1,27,30,0.80 ,2,-1,1,4.170 ,,,,,
13,1,28,0,1.00 ,2,-1,0,3.660 ,,,,,
13,1,29,-15,1.00 ,2,-1,1,3.510 ,,,,,
13,1,30,-45,0.80 ,1,1,1,3.720 ,,,,,
13,1,31,45,0.80 ,2,-1,1,3.710 ,,,,,
13,1,32,15,1.20 ,2,-1,0,3.620 ,,,,,
13,1,33,-45,1.00 ,2,-1,1,3.620 ,,,,,
13,1,34,-45,0.80 ,2,-1,1,3.390 ,,,,,
13,1,35,-30,0.80 ,2,-1,1,3.640 ,,,,,
13,1,36,-15,1.00 ,1,1,1,3.570 ,,,,,
13,1,37,15,1.20 ,1,1,0,3.620 ,,,,,
13,1,38,-45,1.00 ,1,1,1,3.620 ,,,,,
13,1,39,-30,0.80 ,1,1,1,3.620 ,,,,,
13,1,40,15,1.00 ,1,1,1,3.640 ,,,,,
13,1,41,-15,0.80 ,1,1,1,3.590 ,,,,,
13,1,42,-45,1.20 ,2,-1,1,3.860 ,,,,,
13,2,1,-30,0.80 ,1,1,1,3.660 ,,,,,
13,2,2,30,1.00 ,1,1,1,3.840 ,,,,,
13,2,3,0,1.00 ,1,1,1,3.430 ,,,,,
13,2,4,0,1.20 ,2,-1,0,3.830 ,,,,,
13,2,5,-30,0.80 ,2,-1,1,3.630 ,,,,,
13,2,6,0,1.00 ,2,-1,0,4.030 ,,,,,
13,2,7,15,1.20 ,1,1,1,3.810 ,,,,,
13,2,8,45,0.80 ,1,1,1,3.860 ,,,,,
13,2,9,45,0.80 ,2,-1,0,3.790 ,,,,,
13,2,10,15,0.80 ,2,-1,0,3.760 ,,,,,
13,2,11,45,1.20 ,2,-1,0,4.370 ,,,,,
13,2,12,-15,1.00 ,2,-1,1,3.770 ,,,,,
13,2,13,45,1.20 ,1,1,1,3.590 ,,,,,
13,2,14,15,0.80 ,1,1,1,3.610 ,,,,,
13,2,15,0,0.80 ,2,-1,1,3.630 ,,,,,
13,2,16,0,1.20 ,1,1,1,3.730 ,,,,,
13,2,17,-15,0.80 ,2,-1,1,3.600 ,,,,,
13,2,18,-15,1.00 ,1,1,1,3.620 ,,,,,
13,2,19,30,0.80 ,2,-1,1,3.750 ,,,,,
13,2,20,-30,1.20 ,2,-1,1,3.580 ,,,,,
13,2,21,45,1.00 ,2,-1,1,3.600 ,,,,,
13,2,22,-45,1.20 ,1,1,1,3.660 ,,,,,
13,2,23,-45,1.00 ,2,-1,1,3.650 ,,,,,
13,2,24,45,1.00 ,1,1,0,5.180 ,,,,,
13,2,25,-30,1.00 ,2,-1,1,3.680 ,,,,,
13,2,26,0,0.80 ,1,1,0,4.850 ,,,,,
13,2,27,30,1.20 ,1,1,1,3.880 ,,,,,
13,2,28,-15,1.20 ,2,-1,1,3.650 ,,,,,
13,2,29,-30,1.20 ,1,1,1,4.060 ,,,,,
13,2,30,15,1.00 ,2,-1,1,3.700 ,,,,,
13,2,31,30,0.80 ,1,1,1,3.630 ,,,,,
13,2,32,15,1.00 ,1,1,0,3.880 ,,,,,
13,2,33,-30,1.00 ,1,1,1,3.710 ,,,,,
13,2,34,-15,1.20 ,1,1,0,3.630 ,,,,,
13,2,35,-15,0.80 ,1,1,0,3.820 ,,,,,
13,2,36,15,1.20 ,2,-1,1,3.770 ,,,,,
13,2,37,-45,1.20 ,2,-1,1,4.050 ,,,,,
13,2,38,-45,0.80 ,1,1,1,3.730 ,,,,,
13,2,39,30,1.00 ,2,-1,1,3.630 ,,,,,
13,2,40,30,1.20 ,2,-1,0,3.950 ,,,,,
13,2,41,-45,1.00 ,1,1,1,3.760 ,,,,,
13,2,42,-45,0.80 ,2,-1,1,3.650 ,,,,,
13,3,1,0,0.80 ,1,1,0,3.750 ,,,,,
13,3,2,-30,1.20 ,2,-1,1,3.650 ,,,,,
13,3,3,-30,0.80 ,1,1,1,5.140 ,,,,,
13,3,4,30,1.00 ,2,-1,1,3.880 ,,,,,
13,3,5,-15,1.20 ,1,1,0,3.800 ,,,,,
13,3,6,-45,1.20 ,1,1,1,3.730 ,,,,,
13,3,7,30,1.20 ,2,-1,0,3.600 ,,,,,
13,3,8,15,0.80 ,2,-1,0,3.660 ,,,,,
13,3,9,15,0.80 ,1,1,1,3.750 ,,,,,
13,3,10,45,0.80 ,2,-1,0,4.630 ,,,,,
13,3,11,15,1.20 ,1,1,0,3.550 ,,,,,
13,3,12,-45,1.00 ,2,-1,1,3.580 ,,,,,
13,3,13,45,1.00 ,2,-1,1,3.630 ,,,,,
13,3,14,45,1.00 ,1,1,1,3.580 ,,,,,
13,3,15,-45,1.20 ,2,-1,1,3.460 ,,,,,
13,3,16,0,1.00 ,1,1,0,3.870 ,,,,,
13,3,17,45,0.80 ,1,1,1,3.860 ,,,,,
13,3,18,30,0.80 ,1,1,1,3.650 ,,,,,
13,3,19,-15,0.80 ,2,-1,1,3.700 ,,,,,
13,3,20,-30,1.00 ,1,1,1,3.480 ,,,,,
13,3,21,15,1.20 ,2,-1,1,3.720 ,,,,,
13,3,22,30,1.00 ,1,1,1,3.660 ,,,,,
13,3,23,30,0.80 ,2,-1,1,3.760 ,,,,,
13,3,24,-45,0.80 ,1,1,1,3.700 ,,,,,
13,3,25,-30,1.00 ,2,-1,1,3.830 ,,,,,
13,3,26,-30,0.80 ,2,-1,1,3.640 ,,,,,
13,3,27,15,1.00 ,2,-1,1,3.650 ,,,,,
13,3,28,-30,1.20 ,1,1,1,3.780 ,,,,,
13,3,29,-15,1.00 ,1,1,1,3.680 ,,,,,
13,3,30,45,1.20 ,1,1,0,3.810 ,,,,,
13,3,31,-15,1.00 ,2,-1,1,3.710 ,,,,,
13,3,32,0,1.20 ,1,1,1,3.890 ,,,,,
13,3,33,-15,0.80 ,1,1,1,3.620 ,,,,,
13,3,34,0,1.20 ,2,-1,0,3.870 ,,,,,
13,3,35,0,0.80 ,2,-1,0,3.810 ,,,,,
13,3,36,45,1.20 ,2,-1,0,3.770 ,,,,,
13,3,37,15,1.00 ,1,1,0,3.680 ,,,,,
13,3,38,30,1.20 ,1,1,0,3.570 ,,,,,
13,3,39,0,1.00 ,2,-1,0,3.490 ,,,,,
13,3,40,-45,1.00 ,1,1,0,3.630 ,,,,,
13,3,41,-15,1.20 ,2,-1,0,3.540 ,,,,,
13,3,42,-45,0.80 ,2,-1,1,4.020 ,,,,,
14,1,1,30,1.00 ,1,1,0,3.450 ,,,,,
14,1,2,-15,1.00 ,1,1,1,4.130 ,,,,,
14,1,3,0,1.20 ,2,-1,1,5.940 ,,,,,
14,1,4,15,0.80 ,1,1,0,4.520 ,,,,,
14,1,5,-45,1.00 ,2,-1,1,4.000 ,,,,,
14,1,6,45,1.00 ,2,-1,1,6.380 ,,,,,
14,1,7,30,0.80 ,2,-1,1,3.950 ,,,,,
14,1,8,-45,0.80 ,2,-1,1,4.130 ,,,,,
14,1,9,0,0.80 ,1,1,1,3.800 ,,,,,
14,1,10,45,0.80 ,2,-1,1,3.830 ,,,,,
14,1,11,-30,1.00 ,2,-1,0,4.290 ,,,,,
14,1,12,0,0.80 ,2,-1,0,5.100 ,,,,,
14,1,13,0,1.20 ,1,1,1,3.980 ,,,,,
14,1,14,15,1.20 ,2,-1,0,5.160 ,,,,,
14,1,15,-45,0.80 ,1,1,1,3.800 ,,,,,
14,1,16,0,1.00 ,1,1,1,4.400 ,,,,,
14,1,17,30,0.80 ,1,1,1,3.750 ,,,,,
14,1,18,-30,0.80 ,2,-1,0,3.820 ,,,,,
14,1,19,0,1.00 ,2,-1,0,3.710 ,,,,,
14,1,20,45,0.80 ,1,1,1,3.650 ,,,,,
14,1,21,30,1.20 ,2,-1,0,4.020 ,,,,,
14,1,22,-45,1.00 ,1,1,0,3.980 ,,,,,
14,1,23,30,1.00 ,2,-1,0,4.270 ,,,,,
14,1,24,-15,1.00 ,2,-1,0,4.180 ,,,,,
14,1,25,-15,1.20 ,2,-1,0,4.300 ,,,,,
14,1,26,15,1.20 ,1,1,1,3.920 ,,,,,
14,1,27,-15,0.80 ,2,-1,0,4.470 ,,,,,
14,1,28,-30,1.20 ,1,1,1,3.880 ,,,,,
14,1,29,-30,1.00 ,1,1,1,3.560 ,,,,,
14,1,30,45,1.20 ,1,1,1,3.920 ,,,,,
14,1,31,-15,1.20 ,1,1,1,3.940 ,,,,,
14,1,32,45,1.20 ,2,-1,0,3.620 ,,,,,
14,1,33,-30,0.80 ,1,1,1,3.730 ,,,,,
14,1,34,-15,0.80 ,1,1,1,3.770 ,,,,,
14,1,35,-45,1.20 ,1,1,1,3.630 ,,,,,
14,1,36,15,1.00 ,1,1,1,3.700 ,,,,,
14,1,37,15,0.80 ,2,-1,0,4.400 ,,,,,
14,1,38,-45,1.20 ,2,-1,0,3.700 ,,,,,
14,1,39,15,1.00 ,2,-1,0,3.660 ,,,,,
14,1,40,45,1.00 ,1,1,1,4.120 ,,,,,
14,1,41,30,1.20 ,1,1,1,4.260 ,,,,,
14,1,42,-30,1.20 ,2,-1,0,3.780 ,,,,,
14,2,1,-30,1.20 ,2,-1,0,3.960 ,,,,,
14,2,2,-30,1.00 ,1,1,1,4.330 ,,,,,
14,2,3,0,0.80 ,1,1,1,3.590 ,,,,,
14,2,4,0,1.20 ,1,1,1,3.710 ,,,,,
14,2,5,0,1.00 ,2,-1,1,4.750 ,,,,,
14,2,6,30,0.80 ,1,1,1,3.600 ,,,,,
14,2,7,15,1.00 ,2,-1,0,3.910 ,,,,,
14,2,8,-30,1.20 ,1,1,1,3.660 ,,,,,
14,2,9,-15,1.00 ,1,1,1,3.590 ,,,,,
14,2,10,45,1.00 ,1,1,1,3.950 ,,,,,
14,2,11,15,1.20 ,2,-1,0,3.450 ,,,,,
14,2,12,15,1.20 ,1,1,1,3.650 ,,,,,
14,2,13,-45,0.80 ,1,1,1,3.610 ,,,,,
14,2,14,30,0.80 ,2,-1,0,3.640 ,,,,,
14,2,15,45,1.00 ,2,-1,0,3.560 ,,,,,
14,2,16,45,1.20 ,2,-1,0,4.150 ,,,,,
14,2,17,0,1.20 ,2,-1,0,4.680 ,,,,,
14,2,18,30,1.20 ,2,-1,0,3.580 ,,,,,
14,2,19,-15,1.20 ,1,1,1,3.780 ,,,,,
14,2,20,30,1.00 ,1,1,1,3.590 ,,,,,
14,2,21,-45,1.20 ,2,-1,0,3.590 ,,,,,
14,2,22,-15,0.80 ,1,1,1,3.650 ,,,,,
14,2,23,-45,1.20 ,1,1,1,3.600 ,,,,,
14,2,24,15,0.80 ,1,1,1,4.250 ,,,,,
14,2,25,45,0.80 ,1,1,1,4.400 ,,,,,
14,2,26,-45,1.00 ,2,-1,0,3.980 ,,,,,
14,2,27,0,1.00 ,1,1,1,7.430 ,,,,,
14,2,28,-15,0.80 ,2,-1,0,4.410 ,,,,,
14,2,29,30,1.00 ,2,-1,0,4.040 ,,,,,
14,2,30,-30,0.80 ,2,-1,0,3.790 ,,,,,
14,2,31,45,1.20 ,1,1,1,3.680 ,,,,,
14,2,32,-45,1.00 ,1,1,1,3.910 ,,,,,
14,2,33,0,0.80 ,2,-1,1,4.130 ,,,,,
14,2,34,15,0.80 ,2,-1,1,3.690 ,,,,,
14,2,35,15,1.00 ,1,1,1,6.750 ,,,,,
14,2,36,45,0.80 ,2,-1,0,3.880 ,,,,,
14,2,37,30,1.20 ,1,1,0,3.800 ,,,,,
14,2,38,-15,1.20 ,2,-1,0,3.630 ,,,,,
14,2,39,-15,1.00 ,2,-1,0,3.730 ,,,,,
14,2,40,-30,0.80 ,1,1,0,3.900 ,,,,,
14,2,41,-30,1.00 ,2,-1,0,3.630 ,,,,,
14,2,42,-45,0.80 ,2,-1,0,6.610 ,,,,,
14,3,1,-15,1.00 ,2,-1,1,4.960 ,,,,,
14,3,2,-15,1.00 ,1,1,0,5.530 ,,,,,
14,3,3,15,1.00 ,2,-1,0,3.730 ,,,,,
14,3,4,45,1.20 ,1,1,0,3.850 ,,,,,
14,3,5,45,1.00 ,1,1,0,3.960 ,,,,,
14,3,6,45,0.80 ,1,1,0,4.270 ,,,,,
14,3,7,15,1.20 ,1,1,0,3.910 ,,,,,
14,3,8,-45,0.80 ,2,-1,0,5.060 ,,,,,
14,3,9,-45,1.00 ,2,-1,0,3.980 ,,,,,
14,3,10,45,1.20 ,2,-1,0,4.410 ,,,,,
14,3,11,-30,1.00 ,2,-1,0,4.050 ,,,,,
14,3,12,-30,1.00 ,1,1,0,3.760 ,,,,,
14,3,13,0,1.00 ,1,1,1,7.140 ,,,,,
14,3,14,30,1.20 ,1,1,0,3.990 ,,,,,
14,3,15,-15,0.80 ,2,-1,0,3.670 ,,,,,
14,3,16,-45,1.00 ,1,1,0,3.630 ,,,,,
14,3,17,15,0.80 ,2,-1,0,3.600 ,,,,,
14,3,18,-15,1.20 ,2,-1,0,3.880 ,,,,,
14,3,19,-45,1.20 ,1,1,0,3.650 ,,,,,
14,3,20,-15,0.80 ,1,1,0,3.700 ,,,,,
14,3,21,30,0.80 ,1,1,0,3.800 ,,,,,
14,3,22,-30,1.20 ,2,-1,0,3.650 ,,,,,
14,3,23,0,1.00 ,2,-1,1,3.630 ,,,,,
14,3,24,30,1.20 ,2,-1,1,3.810 ,,,,,
14,3,25,15,1.20 ,2,-1,1,3.840 ,,,,,
14,3,26,0,0.80 ,2,-1,1,3.660 ,,,,,
14,3,27,45,0.80 ,2,-1,1,3.750 ,,,,,
14,3,28,30,1.00 ,1,1,1,4.010 ,,,,,
14,3,29,15,1.00 ,1,1,1,3.830 ,,,,,
14,3,30,0,1.20 ,2,-1,1,3.820 ,,,,,
14,3,31,-30,1.20 ,1,1,0,3.660 ,,,,,
14,3,32,0,1.20 ,1,1,1,3.570 ,,,,,
14,3,33,45,1.00 ,2,-1,1,3.680 ,,,,,
14,3,34,-45,1.20 ,2,-1,0,3.650 ,,,,,
14,3,35,-30,0.80 ,2,-1,0,3.680 ,,,,,
14,3,36,30,0.80 ,2,-1,1,3.580 ,,,,,
14,3,37,-45,0.80 ,1,1,0,3.500 ,,,,,
14,3,38,15,0.80 ,1,1,1,3.970 ,,,,,
14,3,39,30,1.00 ,2,-1,1,3.680 ,,,,,
14,3,40,-15,1.20 ,1,1,1,3.830 ,,,,,
14,3,41,0,0.80 ,1,1,1,3.660 ,,,,,
14,3,42,-30,0.80 ,1,1,0,3.610 ,,,,,
15,1,1,0,0.80 ,1,1,1,4.340 ,,,,,
15,1,2,45,0.80 ,2,-1,1,3.760 ,,,,,
15,1,3,15,1.20 ,1,1,1,3.680 ,,,,,
15,1,4,-45,0.80 ,1,1,1,3.710 ,,,,,
15,1,5,15,1.00 ,1,1,1,3.660 ,,,,,
15,1,6,-15,0.80 ,1,1,1,3.640 ,,,,,
15,1,7,45,1.20 ,2,-1,1,3.630 ,,,,,
15,1,8,-45,1.00 ,1,1,1,3.620 ,,,,,
15,1,9,-30,1.20 ,1,1,1,3.940 ,,,,,
15,1,10,-30,0.80 ,2,-1,1,3.630 ,,,,,
15,1,11,45,1.20 ,1,1,0,3.930 ,,,,,
15,1,12,-30,1.00 ,2,-1,1,3.640 ,,,,,
15,1,13,-45,1.20 ,2,-1,1,3.970 ,,,,,
15,1,14,0,0.80 ,2,-1,1,3.700 ,,,,,
15,1,15,-30,1.00 ,1,1,1,3.610 ,,,,,
15,1,16,-45,0.80 ,2,-1,1,3.610 ,,,,,
15,1,17,-45,1.20 ,1,1,1,3.590 ,,,,,
15,1,18,30,1.00 ,2,-1,1,3.590 ,,,,,
15,1,19,-15,1.00 ,2,-1,1,3.600 ,,,,,
15,1,20,-15,1.20 ,1,1,1,3.560 ,,,,,
15,1,21,-15,1.00 ,1,1,1,3.650 ,,,,,
15,1,22,0,1.20 ,1,1,1,3.600 ,,,,,
15,1,23,-15,0.80 ,2,-1,1,3.660 ,,,,,
15,1,24,0,1.20 ,2,-1,1,3.630 ,,,,,
15,1,25,0,1.00 ,2,-1,1,3.860 ,,,,,
15,1,26,15,0.80 ,1,1,1,3.670 ,,,,,
15,1,27,30,1.20 ,1,1,1,3.570 ,,,,,
15,1,28,45,1.00 ,1,1,1,3.630 ,,,,,
15,1,29,-15,1.20 ,2,-1,1,3.600 ,,,,,
15,1,30,30,1.20 ,2,-1,1,3.830 ,,,,,
15,1,31,45,0.80 ,1,1,1,3.730 ,,,,,
15,1,32,15,1.20 ,2,-1,1,3.700 ,,,,,
15,1,33,-30,1.20 ,2,-1,1,3.670 ,,,,,
15,1,34,-45,1.00 ,2,-1,1,3.610 ,,,,,
15,1,35,30,1.00 ,1,1,1,3.590 ,,,,,
15,1,36,30,0.80 ,1,1,1,3.660 ,,,,,
15,1,37,30,0.80 ,2,-1,1,3.610 ,,,,,
15,1,38,15,1.00 ,2,-1,1,3.570 ,,,,,
15,1,39,15,0.80 ,2,-1,1,3.600 ,,,,,
15,1,40,0,1.00 ,1,1,1,3.600 ,,,,,
15,1,41,45,1.00 ,2,-1,0,3.650 ,,,,,
15,1,42,-30,0.80 ,1,1,1,3.800 ,,,,,
15,2,1,30,1.00 ,2,-1,0,3.620 ,,,,,
15,2,2,30,1.20 ,2,-1,0,3.630 ,,,,,
15,2,3,45,0.80 ,1,1,1,3.610 ,,,,,
15,2,4,0,1.20 ,2,-1,1,3.620 ,,,,,
15,2,5,45,1.00 ,2,-1,1,3.560 ,,,,,
15,2,6,-30,1.00 ,2,-1,1,3.610 ,,,,,
15,2,7,-15,1.00 ,1,1,1,3.610 ,,,,,
15,2,8,0,1.20 ,1,1,1,3.540 ,,,,,
15,2,9,15,1.20 ,1,1,0,3.560 ,,,,,
15,2,10,-45,0.80 ,2,-1,1,3.640 ,,,,,
15,2,11,-15,0.80 ,1,1,1,3.620 ,,,,,
15,2,12,-45,0.80 ,1,1,1,3.610 ,,,,,
15,2,13,-15,1.20 ,1,1,1,3.620 ,,,,,
15,2,14,15,1.20 ,2,-1,0,3.650 ,,,,,
15,2,15,0,1.00 ,1,1,1,3.600 ,,,,,
15,2,16,-30,0.80 ,2,-1,1,3.570 ,,,,,
15,2,17,0,0.80 ,1,1,1,3.610 ,,,,,
15,2,18,30,1.00 ,1,1,1,3.600 ,,,,,
15,2,19,-15,0.80 ,2,-1,1,3.580 ,,,,,
15,2,20,-15,1.00 ,2,-1,0,3.610 ,,,,,
15,2,21,15,0.80 ,1,1,0,3.610 ,,,,,
15,2,22,-30,1.20 ,2,-1,1,3.600 ,,,,,
15,2,23,15,0.80 ,2,-1,1,3.930 ,,,,,
15,2,24,45,0.80 ,2,-1,1,3.590 ,,,,,
15,2,25,45,1.20 ,1,1,1,3.530 ,,,,,
15,2,26,-45,1.20 ,1,1,1,3.430 ,,,,,
15,2,27,0,1.00 ,2,-1,1,3.690 ,,,,,
15,2,28,-30,0.80 ,1,1,1,3.620 ,,,,,
15,2,29,15,1.00 ,1,1,1,3.600 ,,,,,
15,2,30,-15,1.20 ,2,-1,1,3.580 ,,,,,
15,2,31,-45,1.00 ,2,-1,1,3.590 ,,,,,
15,2,32,30,1.20 ,1,1,1,3.570 ,,,,,
15,2,33,45,1.00 ,1,1,1,3.650 ,,,,,
15,2,34,30,0.80 ,2,-1,0,3.560 ,,,,,
15,2,35,-30,1.20 ,1,1,1,3.600 ,,,,,
15,2,36,-30,1.00 ,1,1,1,3.410 ,,,,,
15,2,37,30,0.80 ,1,1,1,3.550 ,,,,,
15,2,38,45,1.20 ,2,-1,1,3.590 ,,,,,
15,2,39,0,0.80 ,2,-1,1,3.640 ,,,,,
15,2,40,-45,1.20 ,2,-1,1,3.480 ,,,,,
15,2,41,15,1.00 ,2,-1,1,3.610 ,,,,,
15,2,42,-45,1.00 ,1,1,1,3.630 ,,,,,
15,3,1,30,1.20 ,1,1,0,3.640 ,,,,,
15,3,2,-30,0.80 ,1,1,0,3.660 ,,,,,
15,3,3,-45,1.20 ,2,-1,1,3.600 ,,,,,
15,3,4,-15,1.00 ,2,-1,1,3.740 ,,,,,
15,3,5,45,0.80 ,1,1,1,3.620 ,,,,,
15,3,6,45,1.00 ,2,-1,1,3.430 ,,,,,
15,3,7,15,1.00 ,2,-1,1,3.550 ,,,,,
15,3,8,-30,1.20 ,2,-1,1,3.490 ,,,,,
15,3,9,0,1.00 ,1,1,0,3.560 ,,,,,
15,3,10,15,0.80 ,1,1,1,3.610 ,,,,,
15,3,11,0,1.20 ,2,-1,0,3.690 ,,,,,
15,3,12,-30,1.00 ,2,-1,1,3.860 ,,,,,
15,3,13,0,0.80 ,1,1,0,3.560 ,,,,,
15,3,14,30,0.80 ,1,1,1,3.640 ,,,,,
15,3,15,45,1.20 ,1,1,0,3.360 ,,,,,
15,3,16,-15,1.20 ,2,-1,0,3.560 ,,,,,
15,3,17,30,1.20 ,2,-1,1,3.370 ,,,,,
15,3,18,30,0.80 ,2,-1,1,3.600 ,,,,,
15,3,19,-15,1.00 ,1,1,1,3.740 ,,,,,
15,3,20,15,1.20 ,1,1,1,3.540 ,,,,,
15,3,21,-30,1.20 ,1,1,1,3.560 ,,,,,
15,3,22,45,1.00 ,1,1,1,3.560 ,,,,,
15,3,23,0,0.80 ,2,-1,1,3.470 ,,,,,
15,3,24,-15,0.80 ,1,1,1,3.460 ,,,,,
15,3,25,0,1.20 ,1,1,0,3.610 ,,,,,
15,3,26,15,1.00 ,1,1,1,3.370 ,,,,,
15,3,27,-15,1.20 ,1,1,1,3.400 ,,,,,
15,3,28,15,0.80 ,2,-1,1,3.580 ,,,,,
15,3,29,30,1.00 ,1,1,1,3.440 ,,,,,
15,3,30,0,1.00 ,2,-1,1,3.540 ,,,,,
15,3,31,-30,0.80 ,2,-1,1,3.730 ,,,,,
15,3,32,-15,0.80 ,2,-1,1,3.550 ,,,,,
15,3,33,-45,1.00 ,1,1,1,3.540 ,,,,,
15,3,34,-30,1.00 ,1,1,1,3.500 ,,,,,
15,3,35,30,1.00 ,2,-1,1,3.620 ,,,,,
15,3,36,-45,1.20 ,1,1,1,3.610 ,,,,,
15,3,37,45,1.20 ,2,-1,1,3.350 ,,,,,
15,3,38,45,0.80 ,2,-1,1,3.690 ,,,,,
15,3,39,-45,0.80 ,2,-1,1,3.650 ,,,,,
15,3,40,-45,1.00 ,2,-1,1,3.580 ,,,,,
15,3,41,-45,0.80 ,1,1,1,3.550 ,,,,,
15,3,42,15,1.20 ,2,-1,1,3.380 ,,,,,
16,1,1,30,0.80 ,2,-1,1,3.760 ,,,,,
16,1,2,45,0.80 ,2,-1,1,3.370 ,,,,,
16,1,3,-30,0.80 ,2,-1,1,4.940 ,,,,,
16,1,4,-45,0.80 ,1,1,1,3.570 ,,,,,
16,1,5,-45,1.00 ,2,-1,1,4.950 ,,,,,
16,1,6,0,1.20 ,2,-1,1,3.990 ,,,,,
16,1,7,-30,1.20 ,2,-1,1,3.580 ,,,,,
16,1,8,-15,0.80 ,2,-1,1,4.080 ,,,,,
16,1,9,45,1.00 ,2,-1,0,4.570 ,,,,,
16,1,10,45,0.80 ,1,1,1,3.420 ,,,,,
16,1,11,-30,1.20 ,1,1,1,3.640 ,,,,,
16,1,12,0,0.80 ,2,-1,1,4.250 ,,,,,
16,1,13,15,1.20 ,2,-1,0,3.830 ,,,,,
16,1,14,30,1.00 ,1,1,0,3.870 ,,,,,
16,1,15,15,0.80 ,1,1,0,3.770 ,,,,,
16,1,16,30,0.80 ,1,1,0,3.780 ,,,,,
16,1,17,15,1.00 ,2,-1,1,4.380 ,,,,,
16,1,18,0,0.80 ,1,1,1,4.190 ,,,,,
16,1,19,-45,1.00 ,1,1,1,3.440 ,,,,,
16,1,20,-30,1.00 ,1,1,1,4.450 ,,,,,
16,1,21,-45,1.20 ,1,1,1,3.650 ,,,,,
16,1,22,30,1.00 ,2,-1,0,3.840 ,,,,,
16,1,23,15,1.20 ,1,1,1,3.520 ,,,,,
16,1,24,-45,0.80 ,2,-1,1,3.380 ,,,,,
16,1,25,45,1.20 ,1,1,0,3.870 ,,,,,
16,1,26,30,1.20 ,1,1,1,3.570 ,,,,,
16,1,27,30,1.20 ,2,-1,1,3.600 ,,,,,
16,1,28,15,1.00 ,1,1,0,3.780 ,,,,,
16,1,29,0,1.00 ,2,-1,1,3.600 ,,,,,
16,1,30,-30,1.00 ,2,-1,1,3.690 ,,,,,
16,1,31,-15,1.20 ,2,-1,1,3.850 ,,,,,
16,1,32,-15,1.00 ,2,-1,1,3.770 ,,,,,
16,1,33,-45,1.20 ,2,-1,1,3.790 ,,,,,
16,1,34,-15,0.80 ,1,1,1,3.820 ,,,,,
16,1,35,45,1.20 ,2,-1,0,3.740 ,,,,,
16,1,36,0,1.00 ,1,1,1,3.880 ,,,,,
16,1,37,45,1.00 ,1,1,1,3.500 ,,,,,
16,1,38,-15,1.00 ,1,1,1,3.670 ,,,,,
16,1,39,15,0.80 ,2,-1,0,3.730 ,,,,,
16,1,40,0,1.20 ,1,1,0,3.650 ,,,,,
16,1,41,-30,0.80 ,1,1,1,3.660 ,,,,,
16,1,42,-15,1.20 ,1,1,1,4.230 ,,,,,
16,2,1,-15,0.80 ,1,1,1,3.710 ,,,,,
16,2,2,-15,1.20 ,2,-1,1,3.670 ,,,,,
16,2,3,0,0.80 ,1,1,0,3.590 ,,,,,
16,2,4,30,1.20 ,1,1,1,3.730 ,,,,,
16,2,5,-15,0.80 ,2,-1,1,3.700 ,,,,,
16,2,6,30,1.00 ,1,1,0,3.790 ,,,,,
16,2,7,0,1.20 ,2,-1,1,3.770 ,,,,,
16,2,8,30,0.80 ,2,-1,1,3.700 ,,,,,
16,2,9,45,1.20 ,1,1,1,3.720 ,,,,,
16,2,10,-30,1.20 ,2,-1,1,3.540 ,,,,,
16,2,11,45,1.00 ,2,-1,1,3.710 ,,,,,
16,2,12,-45,0.80 ,1,1,1,3.660 ,,,,,
16,2,13,15,0.80 ,2,-1,0,3.650 ,,,,,
16,2,14,-45,1.00 ,1,1,1,3.740 ,,,,,
16,2,15,30,1.00 ,2,-1,0,3.560 ,,,,,
16,2,16,-15,1.00 ,2,-1,0,3.640 ,,,,,
16,2,17,30,1.20 ,2,-1,0,3.380 ,,,,,
16,2,18,45,0.80 ,2,-1,0,3.660 ,,,,,
16,2,19,-30,1.20 ,1,1,1,3.630 ,,,,,
16,2,20,15,1.00 ,1,1,1,3.850 ,,,,,
16,2,21,-30,1.00 ,1,1,1,3.650 ,,,,,
16,2,22,0,1.00 ,2,-1,0,3.640 ,,,,,
16,2,23,15,1.20 ,2,-1,0,3.610 ,,,,,
16,2,24,45,0.80 ,1,1,0,3.700 ,,,,,
16,2,25,15,1.00 ,2,-1,0,3.730 ,,,,,
16,2,26,0,1.20 ,1,1,0,3.620 ,,,,,
16,2,27,-30,0.80 ,2,-1,1,3.600 ,,,,,
16,2,28,45,1.00 ,1,1,1,3.820 ,,,,,
16,2,29,-30,1.00 ,2,-1,1,3.620 ,,,,,
16,2,30,-15,1.20 ,1,1,0,3.650 ,,,,,
16,2,31,-15,1.00 ,1,1,0,3.600 ,,,,,
16,2,32,-45,1.20 ,1,1,1,3.620 ,,,,,
16,2,33,15,1.20 ,1,1,0,3.740 ,,,,,
16,2,34,-45,0.80 ,2,-1,1,3.580 ,,,,,
16,2,35,0,1.00 ,1,1,0,3.630 ,,,,,
16,2,36,-45,1.20 ,2,-1,1,3.650 ,,,,,
16,2,37,-45,1.00 ,2,-1,1,3.640 ,,,,,
16,2,38,15,0.80 ,1,1,0,3.690 ,,,,,
16,2,39,0,0.80 ,2,-1,1,3.630 ,,,,,
16,2,40,45,1.20 ,2,-1,0,3.730 ,,,,,
16,2,41,-30,0.80 ,1,1,1,3.590 ,,,,,
16,2,42,30,0.80 ,1,1,0,3.600 ,,,,,
16,3,1,30,0.80 ,1,1,0,3.620 ,,,,,
16,3,2,-30,1.00 ,2,-1,1,3.790 ,,,,,
16,3,3,45,1.20 ,1,1,0,3.640 ,,,,,
16,3,4,15,0.80 ,2,-1,0,3.690 ,,,,,
16,3,5,-30,1.20 ,1,1,1,3.640 ,,,,,
16,3,6,30,1.20 ,2,-1,0,3.580 ,,,,,
16,3,7,0,0.80 ,2,-1,1,3.640 ,,,,,
16,3,8,45,1.00 ,1,1,0,3.680 ,,,,,
16,3,9,-15,1.20 ,2,-1,1,3.770 ,,,,,
16,3,10,45,1.20 ,2,-1,1,4.090 ,,,,,
16,3,11,-45,1.00 ,1,1,1,3.640 ,,,,,
16,3,12,0,1.20 ,1,1,0,3.750 ,,,,,
16,3,13,30,1.00 ,2,-1,1,3.600 ,,,,,
16,3,14,0,1.20 ,2,-1,0,3.690 ,,,,,
16,3,15,30,1.00 ,1,1,0,3.690 ,,,,,
16,3,16,-45,1.20 ,1,1,1,3.680 ,,,,,
16,3,17,0,0.80 ,1,1,1,4.290 ,,,,,
16,3,18,-30,1.00 ,1,1,1,3.700 ,,,,,
16,3,19,-15,1.00 ,1,1,0,3.840 ,,,,,
16,3,20,-15,0.80 ,1,1,0,3.720 ,,,,,
16,3,21,15,0.80 ,1,1,0,3.650 ,,,,,
16,3,22,-45,0.80 ,2,-1,1,3.650 ,,,,,
16,3,23,0,1.00 ,1,1,1,3.910 ,,,,,
16,3,24,30,1.20 ,1,1,0,3.860 ,,,,,
16,3,25,15,1.00 ,1,1,0,3.480 ,,,,,
16,3,26,-15,0.80 ,2,-1,0,3.670 ,,,,,
16,3,27,-15,1.00 ,2,-1,1,3.640 ,,,,,
16,3,28,-30,0.80 ,2,-1,1,3.610 ,,,,,
16,3,29,15,1.20 ,2,-1,0,3.570 ,,,,,
16,3,30,45,0.80 ,2,-1,0,3.620 ,,,,,
16,3,31,-15,1.20 ,1,1,1,3.650 ,,,,,
16,3,32,0,1.00 ,2,-1,0,3.660 ,,,,,
16,3,33,-45,0.80 ,1,1,1,3.680 ,,,,,
16,3,34,-45,1.00 ,2,-1,1,3.600 ,,,,,
16,3,35,-45,1.20 ,2,-1,1,3.650 ,,,,,
16,3,36,-30,1.20 ,2,-1,1,3.740 ,,,,,
16,3,37,-30,0.80 ,1,1,1,3.630 ,,,,,
16,3,38,15,1.00 ,2,-1,0,3.680 ,,,,,
16,3,39,45,0.80 ,1,1,1,3.630 ,,,,,
16,3,40,15,1.20 ,1,1,0,3.770 ,,,,,
16,3,41,45,1.00 ,2,-1,0,3.680 ,,,,,
16,3,42,30,0.80 ,2,-1,0,3.670 ,,,,,