id,trial,location,image,imagecategory,target_delay,rt_ej,imageduration,rt_detection,target_correct,ej_correct
1,1,2,18,0,544.17,917.62,1888.59,416.13,0,0
1,2,1,26,1,640.2,789.58,1675.19,234.74,0,0
1,3,1,4,0,533.5,1109.68,1984.62,330.77,0,0
1,4,0,31,1,533.5,1312.41,2123.33,266.75,0,1
1,5,3,2,0,608.19,832.26,1728.54,277.42,0,0
1,6,3,1,0,810.92,682.88,1717.87,213.4,0,0
1,7,3,24,1,853.6,554.84,1589.83,170.72,0,0
1,8,2,26,1,981.64,512.16,1739.21,234.74,0,0
1,9,1,22,1,1067,533.5,1909.93,298.76,0,0
1,10,2,38,1,938.96,469.48,1621.84,202.73,0,0
1,11,3,22,1,533.5,384.12,1237.72,309.43,0,0
1,12,3,20,0,640.2,512.16,1429.78,266.75,1,0
1,13,0,33,1,906.95,458.81,1653.85,277.42,0,0
1,14,0,35,1,800.25,501.49,1557.82,245.41,0,0
1,15,1,10,0,757.57,458.81,1536.48,309.43,0,0
1,16,1,28,1,533.5,480.15,1323.08,298.76,0,0
1,17,1,17,0,629.53,437.47,1344.42,266.75,0,0
1,18,3,5,0,960.3,586.85,1771.22,213.4,0,0
1,19,1,15,0,992.31,640.2,1941.94,298.76,0,0
1,20,0,13,0,757.57,533.5,1525.81,224.07,0,0
1,21,1,13,0,746.9,522.83,1589.83,309.43,0,0
1,22,0,40,1,928.29,458.81,1579.16,181.39,0,0
1,23,1,5,0,661.54,682.88,1600.5,245.41,0,0
1,24,2,28,1,778.91,384.12,1387.1,213.4,0,0
1,25,3,4,0,704.22,448.14,1397.77,234.74,0,0
1,26,1,21,1,640.2,469.48,1365.76,245.41,0,0
1,27,2,23,1,586.85,490.82,1280.4,192.06,0,0
1,28,2,39,1,949.63,405.46,1600.5,234.74,0,0
1,29,1,3,0,554.84,565.51,1643.18,512.16,0,0
1,30,3,15,0,1056.33,480.15,1739.21,192.06,0,0
1,31,0,7,0,1067,864.27,2155.34,213.4,0,0
1,32,3,9,0,672.21,522.83,1483.13,277.42,0,0
1,33,1,7,0,842.93,394.79,1568.49,320.1,0,0
1,34,3,3,0,565.51,640.2,1451.12,234.74,0,0
1,35,1,29,1,672.21,426.8,1323.08,213.4,0,0
1,36,2,10,0,992.31,416.13,1600.5,181.39,0,0
1,37,1,32,1,949.63,448.14,1685.86,277.42,0,0
1,38,0,19,0,597.52,437.47,1280.4,234.74,0,0
1,39,2,31,1,810.92,373.45,1408.44,213.4,0,1
1,40,3,16,0,608.19,1077.67,1963.28,266.75,0,0
1,41,0,4,0,1024.32,437.47,1707.2,234.74,0,0
1,42,2,15,0,768.24,501.49,1515.14,234.74,0,0
1,43,1,19,0,992.31,597.52,2037.97,437.47,0,0
1,44,3,40,1,586.85,469.48,1376.43,309.43,0,0
1,45,1,6,0,544.17,618.86,1451.12,277.42,0,0
1,46,1,11,0,672.21,597.52,1568.49,288.09,0,0
1,47,1,12,0,533.5,597.52,1397.77,256.08,0,0
1,48,3,7,0,650.87,650.87,1568.49,256.08,0,0
1,49,2,12,0,981.64,650.87,1877.92,234.74,0,0
1,50,0,3,0,800.25,490.82,1504.47,202.73,0,0
1,51,3,23,1,949.63,458.81,1664.52,245.41,0,0
1,52,1,18,0,1002.98,885.61,2198.02,298.76,0,0
1,53,0,1,0,714.89,426.8,1451.12,298.76,0,0
1,54,3,31,1,757.57,533.5,1557.82,256.08,0,0
1,55,2,8,0,992.31,1088.34,2315.39,224.07,0,0
1,56,3,30,1,544.17,426.8,1248.39,266.75,0,0
1,57,3,26,1,608.19,448.14,1301.74,234.74,0,0
1,58,2,34,1,949.63,842.93,1995.29,192.06,0,0
1,59,2,4,0,1013.65,416.13,1675.19,234.74,0,0
1,60,3,28,1,693.55,405.46,1440.45,330.77,0,0
1,61,2,33,1,1067,394.79,1696.53,224.07,0,0
1,62,2,20,0,693.55,426.8,1419.11,288.09,0,0
1,63,0,10,0,1034.99,437.47,1685.86,202.73,0,0
1,64,0,26,1,661.54,405.46,1408.44,330.77,0,0
1,65,3,34,1,789.58,448.14,1451.12,202.73,0,0
1,66,0,23,1,757.57,405.46,1451.12,277.42,0,0
1,67,2,22,1,906.95,362.78,1536.48,256.08,0,0
1,68,1,31,1,682.88,469.48,1461.79,298.76,0,0
1,69,2,36,1,810.92,586.85,1643.18,234.74,0,0
1,70,1,37,1,896.28,458.81,1675.19,309.43,0,0
1,71,2,9,0,1013.65,416.13,1643.18,202.73,0,0
1,72,0,29,1,757.57,341.44,1355.09,245.41,0,0
1,73,1,20,0,597.52,661.54,1600.5,330.77,0,0
1,74,3,8,0,714.89,554.84,1515.14,234.74,0,0
1,75,0,8,0,938.96,416.13,1589.83,224.07,0,0
1,76,2,6,0,949.63,416.13,1621.84,245.41,0,0
1,77,2,5,0,682.88,384.12,1301.74,224.07,0,0
1,78,0,30,1,1002.98,405.46,1632.51,213.4,0,0
1,79,3,36,1,1056.33,341.44,1643.18,234.74,0,0
1,80,0,28,1,960.3,320.1,1525.81,234.74,0,0
1,81,0,27,1,757.57,352.11,1387.1,266.75,0,0
1,82,3,35,1,650.87,384.12,1259.06,213.4,0,0
1,83,1,2,0,874.94,469.48,1696.53,341.44,0,0
1,84,2,7,0,640.2,416.13,1259.06,192.06,0,0
1,85,1,1,0,714.89,458.81,1472.46,288.09,0,0
1,86,2,30,1,1013.65,437.47,1664.52,202.73,0,0
1,87,1,9,0,618.86,405.46,1355.09,320.1,0,0
1,88,1,16,0,544.17,608.19,1472.46,309.43,0,0
1,89,3,32,1,992.31,469.48,1760.55,288.09,0,0
1,90,2,16,0,586.85,384.12,1248.39,266.75,0,0
1,91,1,39,1,1024.32,394.79,1749.88,320.1,0,0
1,92,1,14,0,800.25,469.48,1579.16,298.76,0,0
1,93,0,17,0,970.97,586.85,1877.92,309.43,0,0
1,94,1,33,1,832.26,416.13,1461.79,202.73,0,0
1,95,3,21,1,714.89,426.8,1387.1,234.74,0,0
1,96,3,11,0,757.57,618.86,1632.51,245.41,0,0
1,97,1,34,1,938.96,437.47,1685.86,298.76,0,0
1,98,1,30,1,565.51,373.45,1291.07,341.44,0,0
1,99,3,13,0,810.92,448.14,1515.14,245.41,0,0
1,100,1,23,1,842.93,373.45,1429.78,202.73,0,0
1,101,0,5,0,714.89,394.79,1440.45,320.1,0,0
1,102,0,16,0,1045.66,373.45,1675.19,245.41,0,0
1,103,0,37,1,618.86,384.12,1248.39,234.74,1,0
1,104,3,37,1,650.87,522.83,1568.49,384.12,0,1
1,105,2,2,0,533.5,554.84,1408.44,309.43,0,0
1,106,2,19,0,928.29,778.91,2005.96,288.09,0,0
1,107,3,39,1,789.58,426.8,1419.11,192.06,0,0
1,108,0,24,1,938.96,480.15,1653.85,224.07,0,0
1,109,0,36,1,661.54,384.12,1333.75,277.42,0,0
1,110,1,36,1,682.88,277.42,1248.39,277.42,0,0
1,111,0,15,0,896.28,544.17,1707.2,256.08,0,0
1,112,3,27,1,672.21,352.11,1280.4,245.41,0,0
1,113,2,24,1,906.95,405.46,1557.82,234.74,0,0
1,114,1,27,1,714.89,405.46,1451.12,320.1,0,0
1,115,2,13,0,650.87,490.82,1429.78,277.42,0,0
1,116,0,9,0,650.87,458.81,1365.76,245.41,0,0
1,117,1,8,0,864.27,522.83,1685.86,288.09,0,0
1,118,0,21,1,544.17,437.47,1248.39,256.08,0,0
1,119,3,14,0,970.97,640.2,1845.91,224.07,0,0
1,120,1,25,1,1045.66,597.52,2027.3,373.45,0,0
1,121,3,38,1,1013.65,373.45,1653.85,256.08,0,0
1,122,2,25,1,650.87,394.79,1312.41,256.08,0,0
1,123,2,17,0,800.25,757.57,1899.26,330.77,0,0
1,124,2,11,0,864.27,736.23,1877.92,266.75,0,0
1,125,0,20,0,906.95,522.83,1760.55,320.1,0,0
1,126,3,18,0,800.25,512.16,1664.52,341.44,0,0
1,127,1,38,1,800.25,458.81,1632.51,362.78,0,0
1,128,0,22,1,960.3,416.13,1653.85,266.75,0,0
1,129,3,25,1,714.89,405.46,1365.76,234.74,0,0
1,130,0,34,1,928.29,373.45,1600.5,288.09,0,0
1,131,2,40,1,1056.33,426.8,1771.22,277.42,0,0
1,132,0,39,1,821.59,437.47,1707.2,437.47,0,0
1,133,0,32,1,1056.33,373.45,1685.86,245.41,0,0
1,134,2,37,1,981.64,298.76,1536.48,245.41,0,0
1,135,3,10,0,746.9,416.13,1440.45,266.75,0,0
1,136,3,12,0,1056.33,458.81,1813.9,288.09,0,0
1,137,0,14,0,629.53,554.84,1429.78,234.74,0,0
1,138,2,32,1,949.63,352.11,1579.16,266.75,0,0
1,139,1,35,1,1045.66,394.79,1792.56,341.44,0,0
1,140,0,6,0,1002.98,437.47,1685.86,234.74,0,0
1,141,1,40,1,576.18,384.12,1387.1,416.13,0,0
1,142,2,27,1,810.92,416.13,1461.79,224.07,0,0
1,143,3,29,1,704.22,405.46,1323.08,202.73,0,0
1,144,2,3,0,576.18,480.15,1355.09,288.09,0,0
1,145,3,6,0,885.61,576.18,1739.21,266.75,0,0
1,146,0,25,1,970.97,352.11,1600.5,266.75,0,0
1,147,2,21,1,768.24,416.13,1419.11,224.07,0,0
1,148,0,38,1,1056.33,384.12,1685.86,234.74,0,0
1,149,3,17,0,821.59,448.14,1504.47,224.07,0,0
1,150,3,19,0,714.89,650.87,1611.17,234.74,0,0
1,151,0,18,0,1056.33,426.8,1728.54,234.74,0,0
1,152,1,24,1,725.56,405.46,1515.14,373.45,0,0
1,153,2,1,0,992.31,426.8,1675.19,245.41,0,0
1,154,0,11,0,725.56,405.46,1408.44,266.75,0,0
1,155,3,33,1,874.94,458.81,1621.84,277.42,0,0
1,156,2,29,1,1056.33,416.13,1717.87,234.74,0,0
1,157,2,35,1,554.84,341.44,1216.38,309.43,0,0
1,158,0,2,0,789.58,416.13,1461.79,245.41,0,0
1,159,0,12,0,736.23,384.12,1365.76,234.74,0,0
1,160,2,14,0,554.84,394.79,1216.38,256.08,0,0
2,1,3,24,1,736.23,1269.73,2902.24,885.61,0,0
2,2,1,40,1,832.26,704.22,2059.31,512.16,0,0
2,3,2,35,1,800.25,1205.71,2678.17,661.54,0,0
2,4,1,31,1,1045.66,992.31,2358.07,309.43,0,0
2,5,3,8,0,736.23,746.9,1835.24,341.44,0,0
2,6,0,7,0,981.64,629.53,1984.62,362.78,0,0
2,7,1,30,1,800.25,576.18,1781.89,394.79,0,0
2,8,2,1,0,1013.65,533.5,1867.25,309.43,0,0
2,9,3,15,0,853.6,714.89,1835.24,256.08,0,0
2,10,0,1,0,970.97,501.49,1781.89,298.76,0,0
2,11,1,32,1,576.18,650.87,1483.13,245.41,0,0
2,12,3,11,0,789.58,768.24,1824.57,256.08,0,0
2,13,0,32,1,842.93,1120.35,2294.05,320.1,0,0
2,14,3,16,0,704.22,554.84,1547.15,277.42,0,0
2,15,0,37,1,640.2,842.93,1941.94,448.14,0,0
2,16,2,21,1,576.18,618.86,1579.16,373.45,0,0
2,17,1,8,0,842.93,480.15,1675.19,341.44,0,0
2,18,3,17,0,810.92,842.93,1920.6,256.08,0,0
2,19,0,39,1,842.93,533.5,1653.85,266.75,0,0
2,20,0,23,1,736.23,778.91,1909.93,384.12,0,0
2,21,3,18,0,885.61,533.5,1707.2,277.42,0,0
2,22,0,33,1,597.52,522.83,1387.1,256.08,0,0
2,23,2,36,1,864.27,554.84,1685.86,256.08,0,0
2,24,3,25,1,778.91,469.48,1568.49,309.43,0,0
2,25,0,19,0,576.18,618.86,1451.12,245.41,0,0
2,26,1,15,0,586.85,448.14,1333.75,288.09,0,0
2,27,2,15,0,981.64,896.28,2144.67,256.08,0,0
2,28,3,40,1,917.62,928.29,2101.99,245.41,0,0
2,29,3,37,1,917.62,832.26,2059.31,298.76,0,0
2,30,1,17,0,618.86,437.47,1344.42,277.42,0,0
2,31,2,22,1,938.96,629.53,1835.24,256.08,0,0
2,32,0,29,1,640.2,704.22,1611.17,256.08,0,0
2,33,0,2,0,864.27,458.81,1557.82,224.07,0,0
2,34,0,31,1,597.52,928.29,2240.7,704.22,0,0
2,35,3,21,1,746.9,1429.78,2422.09,234.74,0,0
2,36,1,22,1,682.88,480.15,1483.13,309.43,0,0
2,37,1,26,1,629.53,490.82,1408.44,277.42,0,0
2,38,0,14,0,544.17,416.13,1568.49,597.52,0,0
2,39,3,36,1,714.89,416.13,1365.76,224.07,0,0
2,40,3,27,1,981.64,608.19,1835.24,234.74,0,0
2,41,2,27,1,981.64,469.48,1739.21,277.42,0,0
2,42,2,33,1,1045.66,1056.33,2496.78,384.12,0,0
2,43,1,36,1,821.59,416.13,1504.47,256.08,0,0
2,44,1,6,0,725.56,725.56,1728.54,266.75,0,0
2,45,2,30,1,576.18,448.14,1301.74,266.75,0,0
2,46,0,24,1,768.24,437.47,1461.79,245.41,0,0
2,47,1,28,1,864.27,1664.52,2944.92,405.46,0,0
2,48,0,26,1,1013.65,501.49,1835.24,309.43,0,0
2,49,3,3,0,533.5,458.81,1269.73,266.75,0,0
2,50,1,13,0,576.18,405.46,1259.06,266.75,0,0
2,51,1,39,1,810.92,448.14,1525.81,256.08,0,0
2,52,2,14,0,1034.99,373.45,1696.53,277.42,0,0
2,53,3,29,1,746.9,608.19,1653.85,288.09,0,0
2,54,1,27,1,597.52,469.48,1365.76,288.09,0,0
2,55,0,9,0,650.87,512.16,1397.77,224.07,0,0
2,56,3,5,0,800.25,896.28,1952.61,245.41,0,0
2,57,3,33,1,1013.65,448.14,1728.54,256.08,0,0
2,58,2,8,0,704.22,426.8,1440.45,298.76,0,0
2,59,3,1,0,853.6,597.52,1717.87,256.08,0,0
2,60,0,25,1,949.63,544.17,1824.57,320.1,0,0
2,61,2,12,0,896.28,394.79,1525.81,224.07,0,0
2,62,2,38,1,928.29,1227.05,2422.09,256.08,0,0
2,63,0,5,0,672.21,373.45,1291.07,234.74,0,0
2,64,2,23,1,896.28,576.18,1749.88,266.75,0,0
2,65,0,15,0,778.91,490.82,1493.8,213.4,0,0
2,66,1,16,0,885.61,405.46,1515.14,213.4,0,0
2,67,1,33,1,800.25,768.24,1813.9,234.74,0,0
2,68,2,16,0,533.5,650.87,1461.79,266.75,0,0
2,69,1,25,1,821.59,885.61,1952.61,234.74,0,0
2,70,3,7,0,949.63,1045.66,2294.05,288.09,0,0
2,71,3,39,1,778.91,1205.71,2315.39,320.1,0,0
2,72,3,38,1,981.64,608.19,1877.92,277.42,0,0
2,73,0,30,1,1056.33,1109.68,2454.1,277.42,0,0
2,74,2,34,1,1002.98,832.26,2123.33,277.42,0,0
2,75,1,19,0,1002.98,576.18,1856.58,266.75,0,0
2,76,0,12,0,874.94,458.81,1579.16,234.74,0,0
2,77,3,12,0,672.21,874.94,1781.89,224.07,0,0
2,78,0,4,0,533.5,501.49,1269.73,224.07,0,0
2,79,2,28,1,704.22,1344.42,2390.08,330.77,0,0
2,80,0,22,1,864.27,522.83,1728.54,330.77,0,0
2,81,0,10,0,1056.33,586.85,1931.27,277.42,0,0
2,82,2,13,0,746.9,426.8,1461.79,277.42,0,0
2,83,2,39,1,842.93,608.19,1739.21,277.42,0,0
2,84,2,31,1,864.27,2262.04,3403.73,266.75,0,0
2,85,3,9,0,586.85,2027.3,2902.24,277.42,0,0
2,86,1,11,0,544.17,394.79,1216.38,266.75,0,0
2,87,0,17,0,917.62,490.82,1621.84,202.73,0,0
2,88,3,28,1,1024.32,800.25,2080.65,245.41,0,0
2,89,3,6,0,1056.33,970.97,2315.39,277.42,0,0
2,90,0,16,0,938.96,1131.02,2411.42,330.77,0,0
2,91,2,9,0,906.95,405.46,1653.85,330.77,0,0
2,92,2,26,1,597.52,1195.04,2080.65,277.42,0,0
2,93,1,37,1,810.92,512.16,1589.83,256.08,0,0
2,94,1,23,1,608.19,1451.12,2336.73,266.75,0,0
2,95,1,38,1,928.29,554.84,1749.88,256.08,0,0
2,96,3,10,0,842.93,437.47,1568.49,277.42,0,0
2,97,2,5,0,682.88,917.62,1867.25,256.08,0,0
2,98,0,27,1,949.63,533.5,1760.55,266.75,0,0
2,99,0,28,1,906.95,821.59,2016.63,277.42,0,0
2,100,3,26,1,682.88,1419.11,2326.06,213.4,0,0
2,101,2,11,0,1034.99,906.95,2240.7,288.09,0,0
2,102,0,6,0,565.51,640.2,1504.47,288.09,0,0
2,103,0,34,1,842.93,533.5,1621.84,234.74,0,0
2,104,2,20,0,906.95,469.48,1589.83,202.73,0,0
2,105,2,19,0,885.61,1088.34,2198.02,213.4,0,0
2,106,1,24,1,896.28,618.86,1856.58,330.77,0,0
2,107,0,36,1,618.86,565.51,1451.12,256.08,0,0
2,108,2,3,0,554.84,480.15,1536.48,490.82,0,0
2,109,0,11,0,586.85,640.2,1515.14,277.42,0,0
2,110,2,37,1,544.17,736.23,1611.17,320.1,0,0
2,111,1,20,0,618.86,405.46,1312.41,277.42,0,0
2,112,2,18,0,629.53,490.82,1451.12,320.1,0,0
2,113,2,29,1,1034.99,661.54,2005.96,298.76,0,0
2,114,1,2,0,789.58,629.53,1760.55,330.77,0,0
2,115,3,32,1,597.52,554.84,1504.47,341.44,0,0
2,116,1,1,0,576.18,650.87,1632.51,394.79,0,0
2,117,2,2,0,746.9,469.48,1547.15,320.1,0,0
2,118,3,34,1,565.51,448.14,1280.4,256.08,0,0
2,119,2,6,0,586.85,544.17,1483.13,341.44,0,0
2,120,3,31,1,640.2,970.97,1899.26,277.42,0,1
2,121,2,25,1,1013.65,1291.07,2699.51,384.12,0,1
2,122,3,19,0,778.91,501.49,1579.16,288.09,0,0
2,123,0,21,1,789.58,469.48,1589.83,320.1,0,0
2,124,1,34,1,992.31,1717.87,2998.27,277.42,0,0
2,125,3,30,1,800.25,480.15,1536.48,245.41,0,0
2,126,0,18,0,789.58,426.8,1515.14,288.09,0,0
2,127,2,7,0,1002.98,906.95,2230.03,309.43,0,0
2,128,0,40,1,704.22,725.56,1835.24,394.79,0,0
2,129,2,17,0,661.54,448.14,1376.43,256.08,0,0
2,130,0,13,0,586.85,1483.13,2432.76,352.11,0,0
2,131,3,2,0,768.24,448.14,1472.46,245.41,0,0
2,132,3,4,0,640.2,480.15,1376.43,245.41,0,0
2,133,1,7,0,661.54,586.85,1504.47,245.41,0,0
2,134,3,23,1,576.18,618.86,1899.26,693.55,0,1
2,135,1,5,0,618.86,394.79,1344.42,320.1,0,0
2,136,3,13,0,960.3,693.55,1941.94,277.42,0,0
2,137,2,40,1,960.3,448.14,1707.2,288.09,0,0
2,138,1,21,1,746.9,448.14,1472.46,266.75,0,0
2,139,0,8,0,1045.66,576.18,1877.92,245.41,0,0
2,140,2,24,1,1002.98,437.47,1803.23,352.11,0,0
2,141,3,14,0,1056.33,757.57,2091.32,266.75,0,0
2,142,1,29,1,853.6,949.63,2059.31,245.41,0,0
2,143,1,3,0,682.88,874.94,1941.94,373.45,0,0
2,144,3,20,0,1034.99,362.78,1643.18,234.74,0,0
2,145,1,12,0,565.51,682.88,1621.84,362.78,0,0
2,146,1,4,0,533.5,384.12,1195.04,266.75,0,0
2,147,1,14,0,586.85,650.87,1515.14,266.75,0,0
2,148,1,35,1,1034.99,501.49,1781.89,234.74,0,0
2,149,2,10,0,917.62,437.47,1600.5,234.74,0,0
2,150,1,10,0,544.17,970.97,1771.22,245.41,0,0
2,151,3,35,1,938.96,458.81,1685.86,277.42,0,0
2,152,2,32,1,896.28,512.16,1653.85,234.74,0,0
2,153,2,4,0,800.25,448.14,1717.87,458.81,0,0
2,154,1,18,0,533.5,533.5,1611.17,533.5,0,0
2,155,0,20,0,554.84,394.79,1248.39,288.09,0,0
2,156,0,35,1,1002.98,405.46,1696.53,277.42,0,0
2,157,1,9,0,533.5,490.82,1653.85,618.86,0,0
2,158,0,3,0,928.29,448.14,1760.55,373.45,0,0
2,159,0,38,1,1067,533.5,1856.58,245.41,0,0
2,160,3,22,1,970.97,608.19,1824.57,234.74,0,0
3,1,1,2,0,565.51,554.84,1536.48,405.46,0,0
3,2,2,22,1,832.26,800.25,2027.3,384.12,0,0
3,3,3,23,1,736.23,736.23,1941.94,458.81,0,0
3,4,1,18,0,810.92,725.56,1899.26,352.11,0,0
3,5,0,34,1,714.89,618.86,1579.16,234.74,0,0
3,6,2,40,1,970.97,501.49,1824.57,341.44,0,0
3,7,3,35,1,821.59,672.21,1835.24,330.77,0,0
3,8,0,36,1,970.97,736.23,2390.08,672.21,0,0
3,9,2,39,1,533.5,565.51,1536.48,426.8,0,0
3,10,2,6,0,565.51,1002.98,1909.93,330.77,0,0
3,11,1,40,1,885.61,597.52,1824.57,330.77,0,0
3,12,2,34,1,725.56,565.51,1675.19,373.45,0,0
3,13,1,12,0,661.54,714.89,1845.91,458.81,0,0
3,14,2,23,1,757.57,693.55,1739.21,277.42,0,0
3,15,0,11,0,757.57,1344.42,2422.09,309.43,0,1
3,16,1,29,1,554.84,490.82,1451.12,394.79,0,0
3,17,2,17,0,1034.99,725.56,2037.97,266.75,0,0
3,18,1,17,0,768.24,1557.82,2710.18,373.45,0,0
3,19,0,19,0,650.87,853.6,2176.68,661.54,0,0
3,20,2,31,1,672.21,874.94,1835.24,277.42,0,0
3,21,2,1,0,533.5,704.22,1557.82,309.43,0,0
3,22,0,13,0,672.21,501.49,1419.11,234.74,0,0
3,23,2,12,0,672.21,522.83,1525.81,320.1,0,0
3,24,0,39,1,842.93,501.49,1621.84,266.75,0,0
3,25,1,23,1,586.85,725.56,1707.2,384.12,0,0
3,26,0,1,0,608.19,842.93,1707.2,245.41,0,0
3,27,3,6,0,757.57,917.62,2219.36,533.5,0,0
3,28,1,1,0,533.5,618.86,1557.82,394.79,0,0
3,29,3,29,1,576.18,490.82,1568.49,490.82,0,0
3,30,0,27,1,1013.65,458.81,1781.89,298.76,0,0
3,31,0,18,0,938.96,1568.49,2891.57,373.45,0,0
3,32,3,2,0,960.3,576.18,1877.92,330.77,0,0
3,33,3,16,0,672.21,554.84,1451.12,213.4,0,0
3,34,1,5,0,1067,426.8,1867.25,362.78,0,0
3,35,3,27,1,874.94,512.16,1728.54,330.77,0,0
3,36,2,36,1,736.23,501.49,1728.54,480.15,0,0
3,37,1,11,0,1013.65,2550.13,3894.55,320.1,0,0
3,38,3,12,0,1034.99,554.84,1931.27,330.77,0,0
3,39,3,11,0,842.93,448.14,1653.85,352.11,0,0
3,40,3,15,0,1034.99,394.79,1792.56,352.11,0,0
3,41,0,4,0,800.25,896.28,2155.34,448.14,0,0
3,42,1,37,1,768.24,586.85,1685.86,320.1,0,0
3,43,2,8,0,949.63,384.12,1685.86,341.44,0,1
3,44,1,7,0,992.31,586.85,1856.58,266.75,0,0
3,45,3,1,0,565.51,522.83,1461.79,362.78,0,1
3,46,2,21,1,757.57,437.47,1515.14,309.43,0,0
3,47,2,14,0,928.29,853.6,2069.98,277.42,0,0
3,48,1,3,0,693.55,1259.06,2251.37,288.09,0,0
3,49,3,34,1,1013.65,480.15,1760.55,256.08,0,0
3,50,0,23,1,746.9,554.84,1579.16,266.75,0,0
3,51,3,40,1,672.21,437.47,1611.17,490.82,0,0
3,52,2,33,1,885.61,330.77,1429.78,202.73,1,0
3,53,3,17,0,736.23,501.49,1568.49,320.1,0,1
3,54,0,21,1,544.17,405.46,1227.05,266.75,0,0
3,55,0,25,1,821.59,416.13,1429.78,181.39,0,0
3,56,3,9,0,949.63,629.53,1845.91,256.08,0,0
3,57,1,10,0,640.2,405.46,1632.51,576.18,0,0
3,58,1,20,0,896.28,640.2,1984.62,437.47,0,0
3,59,2,13,0,1056.33,469.48,1781.89,245.41,0,0
3,60,1,39,1,576.18,853.6,1781.89,341.44,0,0
3,61,0,15,0,1013.65,1749.88,3008.94,234.74,0,1
3,62,3,33,1,917.62,469.48,1728.54,330.77,0,0
3,63,2,10,0,800.25,522.83,1653.85,320.1,0,0
3,64,1,19,0,906.95,522.83,1739.21,298.76,0,0
3,65,2,30,1,981.64,981.64,2230.03,256.08,0,0
3,66,0,8,0,597.52,1141.69,2059.31,309.43,0,1
3,67,3,31,1,981.64,469.48,1728.54,266.75,0,0
3,68,1,35,1,576.18,394.79,1259.06,277.42,0,0
3,69,3,36,1,970.97,341.44,1568.49,245.41,0,0
3,70,1,34,1,597.52,394.79,1259.06,256.08,0,0
3,71,2,27,1,1067,288.09,1728.54,362.78,0,0
3,72,0,28,1,853.6,384.12,1579.16,330.77,0,0
3,73,1,36,1,928.29,437.47,1696.53,320.1,0,0
3,74,3,21,1,544.17,384.12,1269.73,330.77,0,0
3,75,2,18,0,800.25,1344.42,2400.75,245.41,0,1
3,76,2,28,1,629.53,352.11,1344.42,352.11,0,0
3,77,3,30,1,928.29,352.11,1579.16,288.09,0,0
3,78,1,21,1,1002.98,490.82,1781.89,277.42,0,0
3,79,2,15,0,928.29,501.49,1707.2,266.75,0,1
3,80,1,38,1,960.3,597.52,1941.94,373.45,0,0
3,81,0,20,0,800.25,362.78,1995.29,821.59,0,0
3,82,0,30,1,1056.33,2411.42,3979.91,501.49,0,0
3,83,0,40,1,608.19,1195.04,2176.68,362.78,0,0
3,84,2,20,0,928.29,896.28,2144.67,309.43,0,0
3,85,1,27,1,906.95,1131.02,2443.43,394.79,0,0
3,86,1,6,0,778.91,992.31,2187.35,405.46,0,0
3,87,1,28,1,682.88,885.61,1952.61,373.45,0,0
3,88,0,5,0,757.57,896.28,2016.63,352.11,0,0
3,89,0,17,0,885.61,1291.07,2518.12,330.77,0,0
3,90,1,9,0,1056.33,1333.75,2678.17,277.42,0,0
3,91,1,15,0,608.19,1077.67,2635.49,938.96,0,1
3,92,1,32,1,938.96,874.94,2144.67,320.1,0,0
3,93,3,3,0,970.97,938.96,2219.36,298.76,0,1
3,94,0,22,1,1013.65,917.62,2208.69,266.75,0,0
3,95,1,30,1,640.2,736.23,1696.53,309.43,0,0
3,96,2,37,1,554.84,821.59,1696.53,309.43,0,0
3,97,2,29,1,970.97,896.28,2198.02,320.1,0,0
3,98,0,2,0,693.55,2198.02,3286.36,384.12,0,1
3,99,2,24,1,672.21,938.96,1973.95,352.11,0,0
3,100,3,38,1,842.93,1184.37,2336.73,298.76,0,0
3,101,0,10,0,885.61,1973.95,3168.99,298.76,0,0
3,102,0,38,1,704.22,992.31,1995.29,288.09,0,0
3,103,3,37,1,949.63,1856.58,3179.66,362.78,0,0
3,104,1,26,1,693.55,896.28,1920.6,320.1,0,0
3,105,3,13,0,874.94,928.29,2080.65,266.75,0,0
3,106,0,32,1,992.31,768.24,2112.66,341.44,0,0
3,107,2,7,0,746.9,992.31,2037.97,288.09,0,0
3,108,2,3,0,757.57,1344.42,2390.08,277.42,0,0
3,109,1,33,1,640.2,3958.57,4961.55,352.11,0,0
3,110,2,9,0,629.53,1717.87,2624.82,266.75,0,0
3,111,1,13,0,821.59,864.27,1941.94,245.41,0,0
3,112,0,16,0,960.3,885.61,2134,277.42,0,0
3,113,3,4,0,821.59,1280.4,2464.77,352.11,0,0
3,114,1,14,0,906.95,1205.71,2443.43,320.1,0,0
3,115,3,19,0,832.26,1397.77,2507.45,266.75,0,0
3,116,0,7,0,768.24,928.29,1984.62,277.42,0,0
3,117,1,22,1,650.87,970.97,1952.61,320.1,0,0
3,118,2,19,0,928.29,1792.56,3030.28,298.76,0,0
3,119,2,2,0,970.97,1280.4,2560.8,298.76,0,0
3,120,2,16,0,981.64,928.29,2208.69,288.09,0,0
3,121,2,11,0,704.22,1099.01,2134,320.1,0,0
3,122,1,16,0,533.5,1002.98,1888.59,341.44,0,0
3,123,2,35,1,938.96,2368.74,3595.79,277.42,0,0
3,124,3,14,0,704.22,1034.99,2059.31,309.43,0,0
3,125,1,25,1,789.58,981.64,2048.64,266.75,0,0
3,126,0,3,0,1067,1099.01,2443.43,266.75,0,0
3,127,3,26,1,821.59,1397.77,2614.15,384.12,0,0
3,128,0,9,0,693.55,1067,2059.31,288.09,0,0
3,129,2,5,0,928.29,960.3,2358.07,458.81,0,0
3,130,3,32,1,874.94,1013.65,2262.04,362.78,0,0
3,131,1,24,1,693.55,960.3,2059.31,394.79,0,0
3,132,0,26,1,906.95,1002.98,2166.01,245.41,0,0
3,133,3,5,0,970.97,874.94,2208.69,352.11,0,0
3,134,2,38,1,1002.98,1312.41,2635.49,309.43,0,0
3,135,0,29,1,618.86,874.94,1781.89,277.42,0,0
3,136,3,24,1,640.2,992.31,1931.27,288.09,0,0
3,137,3,39,1,661.54,1024.32,2027.3,330.77,0,0
3,138,0,31,1,938.96,778.91,2005.96,277.42,0,0
3,139,0,12,0,800.25,1440.45,2496.78,245.41,0,0
3,140,0,6,0,1024.32,1429.78,2710.18,245.41,0,0
3,141,2,4,0,970.97,1056.33,2347.4,309.43,0,0
3,142,3,8,0,565.51,1099.01,2037.97,362.78,1,0
3,143,2,26,1,554.84,874.94,1781.89,341.44,0,0
3,144,0,37,1,810.92,1099.01,2187.35,266.75,0,0
3,145,2,25,1,842.93,970.97,2069.98,245.41,0,0
3,146,0,33,1,981.64,853.6,2176.68,330.77,0,0
3,147,0,35,1,938.96,789.58,1995.29,256.08,0,0
3,148,1,8,0,1056.33,1205.71,2646.16,373.45,0,1
3,149,3,22,1,640.2,821.59,1760.55,288.09,0,0
3,150,1,31,1,789.58,853.6,2037.97,384.12,0,0
3,151,3,10,0,917.62,1419.11,2635.49,288.09,0,0
3,152,3,28,1,736.23,373.45,1472.46,352.11,0,0
3,153,3,7,0,768.24,960.3,1963.28,224.07,0,0
3,154,2,32,1,640.2,384.12,1515.14,480.15,0,0
3,155,0,14,0,906.95,490.82,1781.89,373.45,0,0
3,156,0,24,1,928.29,405.46,1621.84,277.42,0,0
3,157,3,20,0,586.85,490.82,1323.08,234.74,0,0
3,158,1,4,0,1056.33,522.83,2016.63,426.8,0,0
3,159,3,25,1,1067,1173.7,2486.11,234.74,0,0
3,160,3,18,0,704.22,736.23,2134,682.88,0,0
4,1,0,17,0,1013.65,1600.5,2976.93,352.11,1,0
4,2,1,32,1,864.27,1451.12,2827.55,501.49,0,0
4,3,1,24,1,757.57,1877.92,3062.29,416.13,0,0
4,4,3,4,0,661.54,853.6,1824.57,298.76,0,0
4,5,2,12,0,832.26,938.96,2144.67,362.78,0,0
4,6,0,34,1,736.23,1002.98,2112.66,362.78,0,0
4,7,0,24,1,768.24,757.57,1867.25,330.77,0,0
4,8,2,22,1,704.22,608.19,1600.5,277.42,0,0
4,9,2,8,0,714.89,672.21,1664.52,266.75,0,0
4,10,1,10,0,768.24,618.86,1845.91,448.14,0,0
4,11,2,28,1,725.56,501.49,1504.47,266.75,0,0
4,12,3,21,1,960.3,437.47,1728.54,320.1,0,0
4,13,3,36,1,768.24,554.84,1589.83,256.08,0,0
4,14,2,19,0,885.61,597.52,1792.56,298.76,0,0
4,15,3,34,1,960.3,458.81,1611.17,181.39,0,0
4,16,2,6,0,597.52,629.53,1515.14,277.42,0,0
4,17,2,29,1,821.59,512.16,1579.16,234.74,0,0
4,18,3,10,0,821.59,501.49,1579.16,245.41,0,0
4,19,0,20,0,544.17,533.5,1355.09,266.75,0,0
4,20,3,37,1,693.55,352.11,1365.76,309.43,0,0
4,21,2,24,1,874.94,437.47,1589.83,266.75,0,0
4,22,2,30,1,757.57,501.49,1643.18,373.45,0,0
4,23,3,28,1,906.95,437.47,1632.51,277.42,0,0
4,24,0,30,1,714.89,426.8,1504.47,352.11,0,0
4,25,2,11,0,970.97,533.5,1888.59,373.45,0,0
4,26,3,27,1,992.31,405.46,1696.53,288.09,0,0
4,27,1,15,0,864.27,501.49,1803.23,426.8,0,0
4,28,1,11,0,778.91,629.53,1739.21,320.1,0,0
4,29,2,7,0,565.51,533.5,1429.78,320.1,0,0
4,30,3,23,1,981.64,533.5,1803.23,277.42,0,0
4,31,3,33,1,1024.32,480.15,1760.55,245.41,0,0
4,32,1,18,0,821.59,853.6,1963.28,277.42,0,0
4,33,1,27,1,725.56,373.45,1397.77,288.09,0,0
4,34,1,39,1,565.51,394.79,1387.1,416.13,0,0
4,35,1,23,1,821.59,458.81,1589.83,298.76,0,0
4,36,3,29,1,1013.65,362.78,1653.85,266.75,0,0
4,37,0,33,1,629.53,458.81,1557.82,458.81,0,0
4,38,3,14,0,832.26,576.18,1685.86,266.75,0,0
4,39,1,26,1,832.26,949.63,2091.32,298.76,0,1
4,40,3,39,1,650.87,544.17,1493.8,288.09,0,0
4,41,0,26,1,576.18,736.23,1781.89,458.81,0,1
4,42,3,18,0,917.62,565.51,1717.87,224.07,0,0
4,43,1,5,0,853.6,522.83,1685.86,298.76,0,0
4,44,2,20,0,1067,512.16,1963.28,373.45,0,1
4,45,1,3,0,768.24,565.51,1675.19,330.77,0,0
4,46,2,36,1,586.85,586.85,1568.49,384.12,0,0
4,47,2,3,0,586.85,512.16,1387.1,277.42,0,0
4,48,2,14,0,576.18,608.19,1557.82,362.78,0,0
4,49,3,40,1,842.93,565.51,1717.87,298.76,0,0
4,50,0,10,0,810.92,597.52,1899.26,480.15,0,0
4,51,3,25,1,1067,565.51,1867.25,224.07,0,0
4,52,0,28,1,810.92,437.47,1525.81,266.75,1,0
4,53,0,36,1,597.52,512.16,1408.44,288.09,0,0
4,54,2,15,0,608.19,565.51,1419.11,234.74,0,0
4,55,0,14,0,640.2,416.13,1355.09,288.09,0,0
4,56,3,20,0,992.31,554.84,1749.88,192.06,0,0
4,57,0,12,0,832.26,448.14,1483.13,192.06,0,0
4,58,2,21,1,640.2,384.12,1301.74,266.75,0,0
4,59,1,19,0,693.55,352.11,1461.79,405.46,0,0
4,60,0,5,0,906.95,469.48,1728.54,341.44,0,0
4,61,1,17,0,1024.32,480.15,1728.54,213.4,1,0
4,62,2,18,0,650.87,917.62,1899.26,320.1,0,0
4,63,0,31,1,992.31,554.84,1909.93,352.11,0,0
4,64,3,22,1,821.59,448.14,1643.18,362.78,0,0
4,65,0,15,0,960.3,533.5,1835.24,330.77,0,0
4,66,1,7,0,746.9,490.82,1525.81,277.42,1,0
4,67,3,38,1,981.64,1056.33,2432.76,384.12,0,1
4,68,0,7,0,874.94,416.13,1664.52,362.78,0,0
4,69,1,36,1,586.85,522.83,1493.8,373.45,0,0
4,70,1,34,1,864.27,522.83,1739.21,341.44,0,0
4,71,2,33,1,725.56,458.81,1536.48,341.44,0,0
4,72,2,39,1,576.18,458.81,1387.1,341.44,0,0
4,73,1,40,1,725.56,469.48,1568.49,362.78,0,0
4,74,1,35,1,533.5,533.5,1408.44,330.77,0,0
4,75,3,11,0,1056.33,480.15,1771.22,224.07,0,0
4,76,3,7,0,1056.33,554.84,1835.24,213.4,0,0
4,77,2,27,1,960.3,352.11,1621.84,298.76,0,0
4,78,1,16,0,917.62,554.84,1717.87,234.74,0,0
4,79,1,8,0,672.21,501.49,1440.45,256.08,0,0
4,80,2,10,0,981.64,437.47,1760.55,330.77,0,0
4,81,1,9,0,821.59,416.13,1557.82,309.43,0,0
4,82,3,35,1,736.23,426.8,1504.47,330.77,0,0
4,83,1,14,0,1034.99,512.16,1803.23,245.41,0,0
4,84,0,8,0,640.2,394.79,1344.42,298.76,0,0
4,85,2,38,1,757.57,234.74,1291.07,288.09,0,1
4,86,2,25,1,1024.32,501.49,1781.89,245.41,0,0
4,87,3,32,1,906.95,426.8,1632.51,288.09,0,0
4,88,0,22,1,629.53,490.82,1504.47,373.45,0,0
4,89,2,34,1,938.96,426.8,1643.18,266.75,0,0
4,90,1,20,0,597.52,640.2,1600.5,352.11,0,0
4,91,2,31,1,853.6,362.78,1461.79,234.74,0,0
4,92,1,13,0,586.85,352.11,1280.4,330.77,0,0
4,93,2,4,0,800.25,618.86,1760.55,330.77,0,1
4,94,1,1,0,768.24,629.53,1760.55,352.11,0,0
4,95,3,6,0,981.64,416.13,1632.51,224.07,0,0
4,96,0,35,1,629.53,1045.66,2016.63,330.77,0,0
4,97,0,6,0,960.3,469.48,1760.55,320.1,0,0
4,98,3,31,1,586.85,384.12,1184.37,202.73,0,0
4,99,1,22,1,981.64,341.44,1728.54,394.79,0,0
4,100,3,30,1,992.31,394.79,1696.53,298.76,0,0
4,101,2,23,1,928.29,384.12,1579.16,256.08,0,0
4,102,1,37,1,949.63,341.44,1653.85,352.11,0,0
4,103,0,13,0,885.61,501.49,1739.21,341.44,0,0
4,104,0,19,0,704.22,554.84,1568.49,298.76,0,0
4,105,2,32,1,906.95,373.45,1600.5,309.43,0,0
4,106,1,28,1,576.18,426.8,1440.45,426.8,0,0
4,107,0,11,0,597.52,533.5,1515.14,373.45,0,0
4,108,0,29,1,757.57,533.5,1632.51,330.77,0,0
4,109,3,19,0,736.23,448.14,1440.45,245.41,0,0
4,110,3,24,1,757.57,576.18,1547.15,202.73,0,0
4,111,3,3,0,853.6,533.5,1589.83,192.06,0,0
4,112,3,26,1,768.24,917.62,1920.6,224.07,0,1
4,113,2,37,1,576.18,426.8,1312.41,298.76,0,0
4,114,0,39,1,928.29,490.82,1920.6,490.82,0,0
4,115,0,16,0,810.92,448.14,1600.5,330.77,0,0
4,116,1,6,0,1024.32,426.8,1888.59,426.8,0,0
4,117,0,18,0,746.9,629.53,1643.18,256.08,0,0
4,118,1,4,0,757.57,469.48,1643.18,405.46,0,0
4,119,1,29,1,586.85,426.8,1323.08,298.76,0,0
4,120,2,5,0,832.26,490.82,1600.5,266.75,0,0
4,121,0,1,0,586.85,597.52,1568.49,373.45,0,0
4,122,3,1,0,1034.99,533.5,1909.93,330.77,0,0
4,123,3,5,0,768.24,437.47,1547.15,330.77,0,0
4,124,0,27,1,1024.32,384.12,1771.22,352.11,0,0
4,125,0,25,1,906.95,544.17,1813.9,352.11,0,0
4,126,0,38,1,885.61,533.5,1792.56,362.78,0,1
4,127,1,38,1,885.61,490.82,1387.1,0,1,1
4,128,0,37,1,800.25,576.18,1781.89,394.79,0,0
4,129,3,8,0,832.26,480.15,1621.84,298.76,0,0
4,130,2,40,1,714.89,405.46,1525.81,394.79,0,0
4,131,0,4,0,832.26,501.49,1696.53,352.11,0,0
4,132,3,16,0,736.23,405.46,1429.78,277.42,0,0
4,133,2,26,1,554.84,554.84,1408.44,288.09,0,1
4,134,3,13,0,757.57,597.52,1643.18,277.42,0,0
4,135,3,12,0,597.52,512.16,1387.1,266.75,0,0
4,136,1,25,1,629.53,373.45,1451.12,437.47,0,0
4,137,3,2,0,672.21,426.8,1333.75,224.07,0,0
4,138,0,9,0,746.9,586.85,1675.19,330.77,0,0
4,139,0,21,1,906.95,480.15,1739.21,341.44,0,0
4,140,2,35,1,885.61,405.46,1568.49,266.75,0,0
4,141,1,2,0,832.26,512.16,1824.57,469.48,0,0
4,142,2,9,0,896.28,501.49,1685.86,277.42,0,0
4,143,1,12,0,746.9,448.14,1621.84,416.13,0,0
4,144,3,17,0,544.17,522.83,1355.09,277.42,0,0
4,145,0,2,0,1067,405.46,1824.57,341.44,0,0
4,146,3,15,0,768.24,554.84,1600.5,266.75,0,0
4,147,2,16,0,789.58,480.15,1600.5,320.1,0,0
4,148,2,17,0,533.5,416.13,1237.72,277.42,0,0
4,149,2,1,0,949.63,490.82,1771.22,320.1,0,0
4,150,0,32,1,896.28,448.14,1589.83,234.74,1,0
4,151,0,40,1,1056.33,512.16,1909.93,330.77,0,0
4,152,0,23,1,1034.99,437.47,1813.9,330.77,0,0
4,153,1,31,1,1056.33,501.49,2005.96,437.47,0,0
4,154,2,2,0,1013.65,544.17,1856.58,288.09,0,0
4,155,1,21,1,778.91,512.16,1717.87,416.13,0,0
4,156,1,33,1,714.89,384.12,1461.79,352.11,0,0
4,157,1,30,1,693.55,373.45,1408.44,330.77,0,0
4,158,2,13,0,725.56,448.14,1472.46,288.09,0,0
4,159,3,9,0,885.61,938.96,2134,298.76,0,0
4,160,0,3,0,874.94,416.13,1621.84,320.1,0,0
5,1,2,13,0,789.58,512.16,2187.35,874.94,0,0
5,2,2,2,0,1013.65,789.58,2710.18,896.28,0,0
5,3,0,6,0,1024.32,640.2,2198.02,522.83,0,0
5,4,3,27,1,714.89,832.26,1952.61,394.79,0,1
5,5,0,33,1,874.94,586.85,1707.2,234.74,0,0
5,6,3,20,0,725.56,416.13,1408.44,256.08,0,0
5,7,2,34,1,938.96,533.5,1749.88,266.75,0,0
5,8,2,5,0,544.17,704.22,1579.16,320.1,0,1
5,9,2,14,0,896.28,533.5,1707.2,266.75,0,0
5,10,2,32,1,533.5,458.81,1291.07,288.09,0,0
5,11,1,10,0,896.28,458.81,1941.94,576.18,0,0
5,12,3,18,0,853.6,576.18,1675.19,234.74,0,0
5,13,2,3,0,810.92,522.83,1579.16,234.74,0,0
5,14,1,35,1,586.85,330.77,1280.4,352.11,0,0
5,15,0,21,1,1067,533.5,1899.26,288.09,0,0
5,16,2,33,1,960.3,352.11,1536.48,213.4,0,0
5,17,3,8,0,736.23,426.8,1387.1,213.4,0,0
5,18,1,2,0,832.26,309.43,1611.17,458.81,0,0
5,19,3,39,1,970.97,554.84,1728.54,192.06,0,0
5,20,1,39,1,714.89,501.49,1621.84,394.79,0,0
5,21,3,1,0,896.28,416.13,1621.84,298.76,0,0
5,22,1,37,1,896.28,373.45,1589.83,309.43,0,0
5,23,3,40,1,533.5,362.78,1291.07,384.12,0,0
5,24,3,13,0,992.31,309.43,1493.8,181.39,0,0
5,25,0,20,0,906.95,341.44,1515.14,256.08,0,0
5,26,2,16,0,757.57,373.45,1344.42,202.73,0,0
5,27,0,27,1,704.22,405.46,1397.77,277.42,0,0
5,28,0,28,1,725.56,373.45,1333.75,224.07,0,0
5,29,2,29,1,970.97,309.43,1493.8,202.73,0,0
5,30,0,11,0,597.52,352.11,1227.05,266.75,0,0
5,31,1,6,0,757.57,266.75,1440.45,405.46,0,0
5,32,0,31,1,800.25,394.79,1483.13,277.42,0,0
5,33,1,38,1,757.57,373.45,1376.43,234.74,1,0
5,34,2,20,0,885.61,384.12,1504.47,224.07,0,0
5,35,1,32,1,1034.99,426.8,1803.23,330.77,0,0
5,36,2,17,0,1013.65,394.79,1664.52,245.41,0,0
5,37,0,13,0,885.61,352.11,1557.82,309.43,0,0
5,38,0,37,1,682.88,458.81,1440.45,288.09,0,0
5,39,1,11,0,810.92,405.46,1579.16,352.11,0,0
5,40,1,16,0,810.92,330.77,1461.79,309.43,0,0
5,41,1,25,1,1013.65,458.81,1781.89,298.76,0,0
5,42,0,10,0,800.25,352.11,1408.44,245.41,0,0
5,43,3,22,1,1013.65,405.46,1643.18,213.4,0,0
5,44,1,22,1,586.85,458.81,1376.43,320.1,0,0
5,45,0,17,0,981.64,373.45,1621.84,256.08,0,0
5,46,2,38,1,565.51,394.79,1205.71,234.74,0,0
5,47,0,24,1,810.92,298.76,1525.81,405.46,0,0
5,48,1,19,0,618.86,640.2,1589.83,320.1,0,0
5,49,1,26,1,650.87,266.75,1195.04,266.75,0,0
5,50,3,5,0,746.9,437.47,1440.45,245.41,0,1
5,51,2,37,1,533.5,320.1,1152.36,288.09,0,0
5,52,1,31,1,981.64,352.11,1557.82,213.4,0,0
5,53,1,29,1,714.89,234.74,1173.7,213.4,0,0
5,54,1,24,1,597.52,277.42,1109.68,224.07,0,0
5,55,0,1,0,725.56,330.77,1461.79,394.79,0,0
5,56,3,14,0,778.91,512.16,1547.15,245.41,0,1
5,57,3,28,1,778.91,352.11,1376.43,234.74,0,0
5,58,1,5,0,1024.32,362.78,1611.17,213.4,0,1
5,59,0,4,0,533.5,405.46,1216.38,266.75,0,0
5,60,1,7,0,1024.32,266.75,1643.18,341.44,0,0
5,61,2,21,1,778.91,469.48,1515.14,256.08,0,0
5,62,0,32,1,682.88,256.08,1312.41,362.78,0,0
5,63,3,3,0,597.52,352.11,1216.38,256.08,0,0
5,64,0,23,1,586.85,512.16,1451.12,341.44,0,0
5,65,0,29,1,618.86,298.76,1259.06,330.77,0,0
5,66,1,27,1,714.89,256.08,1195.04,213.4,0,0
5,67,2,6,0,1013.65,373.45,1611.17,213.4,0,0
5,68,0,18,0,1002.98,352.11,1685.86,320.1,0,0
5,69,1,17,0,544.17,309.43,1216.38,352.11,0,0
5,70,0,16,0,544.17,256.08,1077.67,266.75,0,0
5,71,2,1,0,938.96,288.09,1419.11,181.39,0,0
5,72,0,12,0,746.9,277.42,1280.4,245.41,0,0
5,73,3,26,1,736.23,682.88,1621.84,192.06,0,0
5,74,3,37,1,938.96,266.75,1408.44,192.06,0,0
5,75,2,19,0,1024.32,416.13,1771.22,320.1,0,0
5,76,0,2,0,960.3,309.43,1493.8,213.4,0,0
5,77,0,14,0,853.6,288.09,1387.1,234.74,0,0
5,78,1,21,1,736.23,384.12,1472.46,341.44,0,0
5,79,3,10,0,917.62,352.11,1525.81,245.41,0,0
5,80,3,11,0,586.85,309.43,1163.03,256.08,0,0
5,81,0,3,0,885.61,256.08,1408.44,256.08,0,0
5,82,2,7,0,928.29,298.76,1440.45,202.73,0,0
5,83,1,8,0,1024.32,341.44,1589.83,213.4,0,0
5,84,0,38,1,1024.32,330.77,1632.51,266.75,0,0
5,85,1,20,0,960.3,384.12,1600.5,245.41,0,0
5,86,3,23,1,810.92,352.11,1408.44,234.74,0,0
5,87,1,30,1,565.51,437.47,1312.41,298.76,0,0
5,88,3,17,0,682.88,341.44,1259.06,224.07,0,0
5,89,3,36,1,1056.33,362.78,1675.19,245.41,0,0
5,90,3,16,0,618.86,298.76,1184.37,256.08,0,0
5,91,0,8,0,1002.98,384.12,1611.17,213.4,0,0
5,92,1,13,0,1024.32,256.08,1621.84,330.77,0,0
5,93,1,4,0,949.63,298.76,1611.17,352.11,0,0
5,94,1,23,1,853.6,352.11,1483.13,266.75,0,0
5,95,3,32,1,586.85,266.75,1141.69,277.42,0,0
5,96,2,11,0,832.26,330.77,1429.78,256.08,0,0
5,97,1,14,0,682.88,885.61,1877.92,298.76,0,0
5,98,2,40,1,832.26,522.83,1632.51,266.75,0,0
5,99,0,39,1,938.96,256.08,1568.49,362.78,0,0
5,100,3,33,1,661.54,352.11,1301.74,277.42,0,0
5,101,2,25,1,853.6,394.79,1472.46,213.4,0,0
5,102,1,40,1,746.9,352.11,1419.11,309.43,0,0
5,103,3,25,1,565.51,320.1,1173.7,277.42,0,0
5,104,2,27,1,576.18,288.09,1152.36,277.42,0,0
5,105,3,24,1,704.22,384.12,1355.09,256.08,0,0
5,106,3,4,0,1045.66,298.76,1611.17,256.08,0,0
5,107,2,24,1,544.17,341.44,1184.37,288.09,0,0
5,108,0,7,0,981.64,266.75,1568.49,309.43,0,0
5,109,3,30,1,1024.32,266.75,1515.14,213.4,0,0
5,110,0,35,1,608.19,394.79,1269.73,256.08,0,0
5,111,0,40,1,906.95,266.75,1504.47,320.1,0,0
5,112,0,9,0,906.95,352.11,1461.79,192.06,0,0
5,113,2,4,0,1024.32,277.42,1525.81,213.4,0,0
5,114,1,28,1,597.52,266.75,1248.39,373.45,0,0
5,115,0,26,1,874.94,512.16,1760.55,362.78,0,0
5,116,0,19,0,1024.32,416.13,1771.22,320.1,0,0
5,117,3,6,0,640.2,320.1,1173.7,202.73,0,0
5,118,3,21,1,1002.98,384.12,1664.52,266.75,0,0
5,119,1,36,1,586.85,394.79,1259.06,266.75,0,0
5,120,2,15,0,597.52,341.44,1173.7,224.07,0,0
5,121,2,36,1,608.19,352.11,1195.04,224.07,0,0
5,122,2,10,0,618.86,341.44,1184.37,213.4,0,0
5,123,2,26,1,565.51,330.77,1173.7,266.75,0,0
5,124,1,1,0,608.19,405.46,1355.09,330.77,0,0
5,125,0,5,0,565.51,256.08,1163.03,330.77,0,0
5,126,0,15,0,746.9,384.12,1440.45,298.76,0,0
5,127,2,12,0,800.25,362.78,1397.77,224.07,0,0
5,128,2,31,1,885.61,373.45,1493.8,224.07,0,0
5,129,1,12,0,906.95,320.1,1632.51,394.79,0,0
5,130,2,35,1,842.93,405.46,1461.79,202.73,0,0
5,131,0,30,1,533.5,405.46,1301.74,352.11,0,0
5,132,3,7,0,1002.98,597.52,1877.92,266.75,0,0
5,133,2,8,0,725.56,341.44,1355.09,277.42,0,0
5,134,0,34,1,586.85,416.13,1333.75,320.1,0,0
5,135,3,15,0,608.19,362.78,1205.71,224.07,0,0
5,136,3,19,0,757.57,405.46,1387.1,213.4,0,0
5,137,2,9,0,1013.65,298.76,1536.48,213.4,0,0
5,138,2,39,1,1045.66,394.79,1717.87,266.75,0,0
5,139,2,28,1,832.26,384.12,1451.12,224.07,0,0
5,140,3,12,0,896.28,288.09,1419.11,224.07,0,0
5,141,1,15,0,896.28,501.49,1760.55,352.11,0,0
5,142,0,36,1,608.19,330.77,1227.05,277.42,0,0
5,143,2,18,0,714.89,341.44,1291.07,224.07,0,0
5,144,2,22,1,896.28,384.12,1515.14,224.07,0,0
5,145,3,29,1,1067,362.78,1653.85,213.4,0,0
5,146,3,35,1,533.5,320.1,1173.7,309.43,0,0
5,147,3,31,1,533.5,352.11,1141.69,245.41,0,0
5,148,1,18,0,640.2,448.14,1461.79,362.78,0,0
5,149,1,33,1,970.97,298.76,1643.18,362.78,0,0
5,150,3,34,1,661.54,277.42,1227.05,277.42,0,0
5,151,2,23,1,704.22,352.11,1333.75,266.75,0,0
5,152,1,3,0,832.26,362.78,1547.15,341.44,0,0
5,153,1,9,0,800.25,362.78,1408.44,234.74,0,0
5,154,0,22,1,853.6,394.79,1653.85,394.79,0,0
5,155,3,38,1,960.3,384.12,1632.51,277.42,0,0
5,156,2,30,1,832.26,352.11,1472.46,277.42,0,0
5,157,1,34,1,960.3,234.74,1504.47,298.76,0,0
5,158,3,2,0,533.5,330.77,1227.05,352.11,0,0
5,159,0,25,1,629.53,416.13,1333.75,277.42,0,0
5,160,3,9,0,810.92,362.78,1429.78,245.41,0,0
6,1,0,19,0,640.2,533.5,1419.11,234.74,0,0
6,2,2,16,0,789.58,672.21,1643.18,170.72,0,0
6,3,0,26,1,896.28,490.82,1600.5,202.73,0,1
6,4,0,21,1,640.2,586.85,1451.12,213.4,0,0
6,5,0,9,0,714.89,352.11,1269.73,192.06,0,0
6,6,1,18,0,1013.65,490.82,1835.24,320.1,0,0
6,7,0,5,0,565.51,501.49,1323.08,245.41,0,1
6,8,1,14,0,736.23,533.5,1568.49,288.09,0,0
6,9,3,28,1,672.21,544.17,1397.77,170.72,0,0
6,10,1,4,0,554.84,608.19,1408.44,234.74,0,0
6,11,2,27,1,736.23,458.81,1397.77,192.06,0,0
6,12,0,14,0,928.29,597.52,1739.21,202.73,0,0
6,13,3,9,0,629.53,426.8,1248.39,181.39,0,0
6,14,0,6,0,682.88,458.81,1333.75,181.39,0,0
6,15,2,11,0,906.95,416.13,1536.48,202.73,0,0
6,16,3,25,1,1034.99,277.42,1515.14,192.06,0,1
6,17,3,4,0,736.23,437.47,1365.76,181.39,0,0
6,18,2,39,1,714.89,416.13,1355.09,213.4,0,0
6,19,1,9,0,789.58,458.81,1557.82,298.76,0,0
6,20,2,35,1,554.84,458.81,1227.05,202.73,0,0
6,21,1,26,1,1013.65,554.84,1867.25,288.09,0,1
6,22,2,33,1,842.93,426.8,1472.46,192.06,1,0
6,23,0,11,0,704.22,597.52,1557.82,245.41,0,0
6,24,0,25,1,1056.33,512.16,1835.24,256.08,0,0
6,25,0,2,0,554.84,458.81,1312.41,288.09,0,0
6,26,2,2,0,768.24,426.8,1397.77,192.06,0,0
6,27,1,12,0,768.24,448.14,1515.14,288.09,0,0
6,28,3,35,1,906.95,405.46,1504.47,181.39,0,0
6,29,3,20,0,554.84,437.47,1195.04,192.06,0,0
6,30,2,34,1,896.28,490.82,1643.18,245.41,0,0
6,31,2,13,0,618.86,426.8,1248.39,192.06,0,0
6,32,3,37,1,885.61,384.12,1483.13,202.73,0,0
6,33,3,8,0,544.17,533.5,1291.07,202.73,0,1
6,34,0,18,0,757.57,576.18,1600.5,256.08,0,0
6,35,0,31,1,1056.33,522.83,1824.57,234.74,0,0
6,36,1,17,0,725.56,512.16,1984.62,736.23,0,1
6,37,2,3,0,1056.33,725.56,1973.95,181.39,0,1
6,38,1,16,0,1024.32,597.52,1856.58,224.07,0,0
6,39,0,34,1,821.59,469.48,1493.8,192.06,0,0
6,40,2,7,0,725.56,437.47,1376.43,202.73,0,0
6,41,0,36,1,874.94,405.46,1525.81,234.74,0,0
6,42,3,23,1,640.2,458.81,1301.74,192.06,0,0
6,43,2,6,0,704.22,448.14,1355.09,192.06,0,0
6,44,0,32,1,757.57,416.13,1376.43,192.06,0,0
6,45,2,20,0,1002.98,384.12,1600.5,202.73,0,0
6,46,1,3,0,544.17,672.21,1525.81,298.76,0,1
6,47,3,16,0,1013.65,373.45,1600.5,202.73,0,0
6,48,1,28,1,1067,362.78,1589.83,149.38,0,0
6,49,3,1,0,778.91,330.77,1280.4,160.05,0,0
6,50,0,22,1,1024.32,437.47,1696.53,224.07,0,0
6,51,2,5,0,544.17,629.53,1408.44,224.07,0,1
6,52,0,30,1,778.91,373.45,1376.43,213.4,0,0
6,53,1,10,0,661.54,384.12,1227.05,170.72,0,0
6,54,2,22,1,992.31,394.79,1589.83,192.06,0,0
6,55,3,40,1,1067,416.13,1685.86,192.06,0,0
6,56,3,15,0,746.9,704.22,1643.18,181.39,0,0
6,57,1,36,1,938.96,352.11,1557.82,256.08,0,0
6,58,3,5,0,938.96,554.84,1675.19,170.72,0,1
6,59,3,11,0,608.19,394.79,1205.71,192.06,0,0
6,60,1,15,0,885.61,448.14,1568.49,224.07,0,0
6,61,2,37,1,960.3,320.1,1483.13,192.06,0,0
6,62,2,21,1,810.92,373.45,1632.51,437.47,0,0
6,63,2,24,1,853.6,394.79,1440.45,181.39,0,0
6,64,2,25,1,768.24,384.12,1355.09,192.06,0,0
6,65,0,13,0,778.91,330.77,1451.12,330.77,0,0
6,66,1,31,1,1067,426.8,1696.53,192.06,0,0
6,67,3,22,1,565.51,320.1,1131.02,234.74,0,0
6,68,3,36,1,906.95,362.78,1493.8,213.4,0,0
6,69,2,19,0,1024.32,394.79,1621.84,192.06,0,0
6,70,0,17,0,789.58,682.88,1728.54,245.41,0,0
6,71,0,40,1,821.59,405.46,1472.46,234.74,0,0
6,72,2,4,0,842.93,384.12,1504.47,266.75,0,0
6,73,3,29,1,992.31,853.6,2016.63,160.05,0,0
6,74,3,32,1,992.31,373.45,1525.81,149.38,0,0
6,75,1,20,0,544.17,341.44,1152.36,256.08,0,0
6,76,0,4,0,544.17,448.14,1248.39,245.41,0,0
6,77,3,7,0,853.6,597.52,1621.84,160.05,0,0
6,78,1,29,1,938.96,373.45,1557.82,234.74,0,0
6,79,1,19,0,842.93,437.47,1515.14,224.07,0,0
6,80,0,35,1,704.22,362.78,1333.75,256.08,0,0
6,81,2,40,1,992.31,320.1,1568.49,245.41,0,0
6,82,1,33,1,1013.65,405.46,1632.51,202.73,0,0
6,83,2,36,1,992.31,341.44,1525.81,181.39,0,0
6,84,1,6,0,842.93,341.44,1365.76,170.72,0,0
6,85,3,17,0,650.87,373.45,1237.72,202.73,0,0
6,86,2,1,0,981.64,405.46,1589.83,192.06,0,0
6,87,3,3,0,1013.65,394.79,1600.5,181.39,0,0
6,88,0,12,0,586.85,394.79,1269.73,277.42,0,0
6,89,1,11,0,1045.66,341.44,1621.84,224.07,0,0
6,90,0,3,0,757.57,256.08,1269.73,245.41,0,0
6,91,3,30,1,650.87,362.78,1184.37,160.05,0,0
6,92,2,14,0,640.2,309.43,1152.36,192.06,0,0
6,93,3,18,0,565.51,437.47,1195.04,181.39,0,0
6,94,3,24,1,832.26,416.13,1451.12,192.06,0,0
6,95,2,10,0,896.28,384.12,1493.8,202.73,0,0
6,96,2,9,0,661.54,405.46,1291.07,213.4,0,0
6,97,3,10,0,1067,416.13,1653.85,160.05,0,0
6,98,1,8,0,864.27,341.44,1397.77,181.39,0,0
6,99,1,30,1,896.28,320.1,1429.78,202.73,0,0
6,100,3,34,1,661.54,405.46,1248.39,170.72,0,0
6,101,2,12,0,565.51,330.77,1120.35,213.4,0,0
6,102,0,37,1,650.87,320.1,1301.74,320.1,0,0
6,103,1,34,1,640.2,320.1,1152.36,181.39,0,0
6,104,0,27,1,864.27,394.79,1504.47,234.74,0,0
6,105,1,39,1,650.87,330.77,1173.7,181.39,0,0
6,106,3,26,1,597.52,490.82,1280.4,181.39,0,1
6,107,0,7,0,736.23,298.76,1280.4,234.74,0,1
6,108,0,15,0,629.53,362.78,1259.06,256.08,0,0
6,109,3,21,1,853.6,426.8,1515.14,224.07,0,0
6,110,2,28,1,640.2,394.79,1227.05,181.39,0,0
6,111,2,8,0,853.6,256.08,1312.41,192.06,0,1
6,112,3,31,1,853.6,394.79,1429.78,170.72,0,0
6,113,3,12,0,736.23,373.45,1301.74,181.39,0,0
6,114,0,38,1,906.95,458.81,1600.5,224.07,0,0
6,115,1,1,0,554.84,512.16,1259.06,181.39,0,0
6,116,0,16,0,1024.32,405.46,1653.85,213.4,0,0
6,117,1,40,1,928.29,384.12,1547.15,224.07,1,0
6,118,3,2,0,554.84,320.1,1141.69,256.08,0,1
6,119,0,39,1,629.53,330.77,1333.75,362.78,0,0
6,120,2,17,0,608.19,384.12,1259.06,256.08,0,0
6,121,2,31,1,981.64,384.12,1579.16,202.73,0,0
6,122,1,37,1,661.54,533.5,1483.13,277.42,0,0
6,123,2,32,1,938.96,288.09,1440.45,202.73,0,0
6,124,0,29,1,768.24,266.75,1280.4,234.74,0,0
6,125,0,20,0,885.61,373.45,1536.48,266.75,0,1
6,126,0,23,1,832.26,469.48,1557.82,245.41,0,0
6,127,2,38,1,981.64,544.17,1749.88,213.4,0,0
6,128,0,1,0,768.24,448.14,1493.8,266.75,0,0
6,129,1,32,1,970.97,384.12,1600.5,234.74,0,0
6,130,1,23,1,874.94,320.1,1461.79,256.08,0,0
6,131,3,13,0,938.96,352.11,1472.46,170.72,0,0
6,132,0,10,0,544.17,405.46,1152.36,192.06,0,0
6,133,3,19,0,917.62,394.79,1504.47,181.39,0,0
6,134,3,14,0,917.62,533.5,1643.18,181.39,0,0
6,135,3,6,0,1013.65,277.42,1504.47,202.73,0,0
6,136,1,25,1,810.92,266.75,1280.4,192.06,1,1
6,137,1,7,0,725.56,490.82,1419.11,192.06,0,0
6,138,3,39,1,533.5,330.77,1067,192.06,0,0
6,139,3,27,1,917.62,362.78,1472.46,181.39,0,0
6,140,1,13,0,533.5,298.76,1120.35,277.42,0,1
6,141,0,24,1,1013.65,352.11,1675.19,298.76,0,0
6,142,1,22,1,1034.99,768.24,2134,320.1,0,0
6,143,1,35,1,618.86,373.45,1195.04,192.06,0,0
6,144,1,5,0,565.51,490.82,1344.42,277.42,0,1
6,145,2,23,1,1045.66,320.1,1611.17,234.74,0,0
6,146,1,24,1,917.62,362.78,1483.13,192.06,0,0
6,147,0,33,1,672.21,384.12,1344.42,277.42,0,0
6,148,3,38,1,970.97,469.48,1664.52,213.4,0,0
6,149,0,8,0,597.52,426.8,1248.39,213.4,0,0
6,150,2,15,0,640.2,405.46,1259.06,202.73,0,0
6,151,2,30,1,853.6,362.78,1429.78,202.73,0,0
6,152,1,21,1,757.57,373.45,1397.77,256.08,0,0
6,153,1,2,0,554.84,384.12,1291.07,341.44,0,0
6,154,1,27,1,1024.32,352.11,1568.49,181.39,0,0
6,155,0,28,1,949.63,320.1,1536.48,256.08,0,0
6,156,2,29,1,693.55,320.1,1259.06,234.74,0,0
6,157,2,18,0,981.64,448.14,1664.52,224.07,0,0
6,158,1,38,1,853.6,394.79,1493.8,234.74,0,0
6,159,2,26,1,768.24,384.12,1397.77,234.74,0,1
6,160,3,33,1,565.51,394.79,1237.72,266.75,0,0
7,1,0,31,1,960.3,12387.87,13817.65,458.81,0,0
7,2,1,8,0,810.92,917.62,2198.02,458.81,0,0
7,3,1,30,1,746.9,693.55,1824.57,373.45,0,0
7,4,3,5,0,661.54,725.56,1707.2,309.43,0,0
7,5,3,34,1,714.89,1067,2027.3,234.74,0,0
7,6,2,5,0,714.89,1184.37,2144.67,234.74,0,0
7,7,0,1,0,778.91,778.91,1856.58,288.09,0,0
7,8,3,32,1,682.88,757.57,1760.55,309.43,0,0
7,9,3,6,0,832.26,810.92,1973.95,320.1,0,0
7,10,3,4,0,821.59,704.22,1781.89,245.41,0,0
7,11,0,40,1,928.29,458.81,1621.84,224.07,0,0
7,12,3,37,1,714.89,789.58,1760.55,245.41,0,0
7,13,3,35,1,928.29,768.24,1920.6,213.4,0,0
7,14,1,5,0,576.18,533.5,1589.83,469.48,0,0
7,15,2,1,0,725.56,757.57,1749.88,256.08,0,0
7,16,1,38,1,917.62,938.96,2198.02,330.77,0,0
7,17,1,36,1,906.95,746.9,2091.32,426.8,0,0
7,18,3,20,0,704.22,736.23,1717.87,266.75,0,0
7,19,1,39,1,693.55,416.13,1504.47,384.12,0,0
7,20,3,28,1,640.2,554.84,1515.14,309.43,0,0
7,21,0,33,1,832.26,480.15,1557.82,234.74,0,0
7,22,3,3,0,693.55,800.25,1707.2,202.73,0,0
7,23,1,7,0,821.59,544.17,1717.87,341.44,0,0
7,24,0,18,0,608.19,618.86,1429.78,192.06,0,0
7,25,3,8,0,1056.33,533.5,1835.24,234.74,0,0
7,26,1,17,0,746.9,597.52,1771.22,416.13,0,0
7,27,1,16,0,928.29,416.13,1717.87,362.78,0,0
7,28,1,28,1,1034.99,522.83,1899.26,330.77,0,0
7,29,1,18,0,554.84,405.46,1323.08,352.11,0,0
7,30,1,34,1,608.19,576.18,1547.15,352.11,0,0
7,31,2,12,0,618.86,416.13,1301.74,256.08,0,0
7,32,3,23,1,821.59,597.52,1643.18,213.4,0,0
7,33,2,32,1,992.31,405.46,1611.17,202.73,0,0
7,34,0,9,0,992.31,416.13,1632.51,213.4,0,0
7,35,0,5,0,725.56,672.21,1675.19,266.75,0,0
7,36,2,14,0,682.88,554.84,1525.81,277.42,0,0
7,37,3,21,1,896.28,448.14,1643.18,288.09,0,0
7,38,2,20,0,970.97,384.12,1643.18,277.42,0,0
7,39,2,18,0,746.9,512.16,1568.49,298.76,0,0
7,40,0,10,0,896.28,352.11,1461.79,202.73,0,0
7,41,1,27,1,906.95,416.13,1739.21,405.46,0,0
7,42,1,19,0,864.27,522.83,1739.21,341.44,0,0
7,43,0,12,0,757.57,405.46,1493.8,320.1,0,0
7,44,1,3,0,960.3,544.17,2037.97,522.83,0,0
7,45,0,3,0,565.51,394.79,1248.39,277.42,0,0
7,46,2,37,1,981.64,490.82,1696.53,213.4,0,0
7,47,3,38,1,608.19,576.18,1397.77,202.73,0,0
7,48,0,34,1,960.3,394.79,1547.15,181.39,0,0
7,49,1,33,1,1067,394.79,1920.6,448.14,0,0
7,50,0,8,0,810.92,437.47,1461.79,202.73,0,0
7,51,2,31,1,661.54,480.15,1365.76,213.4,0,0
7,52,2,36,1,789.58,416.13,1451.12,234.74,0,0
7,53,0,39,1,938.96,416.13,1600.5,234.74,0,0
7,54,0,26,1,842.93,405.46,1483.13,224.07,0,0
7,55,1,2,0,842.93,501.49,1685.86,330.77,0,0
7,56,1,22,1,1056.33,597.52,1963.28,298.76,0,0
7,57,2,9,0,864.27,458.81,1653.85,320.1,0,0
7,58,0,29,1,746.9,629.53,1685.86,298.76,0,0
7,59,3,29,1,778.91,448.14,1483.13,245.41,0,0
7,60,0,23,1,565.51,469.48,1323.08,277.42,0,0
7,61,1,6,0,1024.32,501.49,1760.55,224.07,0,0
7,62,2,11,0,1045.66,661.54,1909.93,192.06,0,0
7,63,3,1,0,874.94,416.13,1525.81,224.07,0,0
7,64,3,36,1,757.57,384.12,1419.11,266.75,0,0
7,65,1,10,0,992.31,416.13,1760.55,341.44,0,0
7,66,0,37,1,661.54,405.46,1323.08,245.41,0,0
7,67,0,27,1,1056.33,469.48,1781.89,245.41,0,0
7,68,0,32,1,864.27,341.44,1461.79,245.41,0,0
7,69,3,9,0,629.53,437.47,1269.73,192.06,0,0
7,70,0,14,0,917.62,704.22,1813.9,181.39,0,0
7,71,0,24,1,704.22,928.29,1920.6,277.42,0,0
7,72,0,20,0,842.93,458.81,1504.47,192.06,0,0
7,73,1,12,0,736.23,576.18,1675.19,352.11,0,0
7,74,3,17,0,736.23,448.14,1408.44,213.4,0,0
7,75,2,33,1,629.53,362.78,1216.38,213.4,0,0
7,76,3,13,0,928.29,522.83,1685.86,224.07,0,0
7,77,0,36,1,586.85,416.13,1269.73,256.08,0,0
7,78,1,11,0,650.87,821.59,1920.6,437.47,0,0
7,79,0,15,0,618.86,405.46,1323.08,288.09,0,0
7,80,2,23,1,746.9,373.45,1333.75,202.73,0,0
7,81,3,33,1,629.53,362.78,1216.38,213.4,0,0
7,82,0,30,1,672.21,373.45,1280.4,224.07,0,0
7,83,2,24,1,864.27,426.8,1515.14,213.4,0,0
7,84,3,15,0,1067,341.44,1653.85,234.74,0,1
7,85,1,35,1,906.95,458.81,1739.21,362.78,0,0
7,86,1,25,1,896.28,480.15,1835.24,448.14,0,1
7,87,3,26,1,565.51,394.79,1237.72,266.75,0,0
7,88,0,4,0,949.63,458.81,1664.52,245.41,0,0
7,89,0,38,1,693.55,416.13,1376.43,256.08,0,0
7,90,3,18,0,714.89,426.8,1397.77,245.41,0,0
7,91,0,16,0,810.92,533.5,1568.49,213.4,0,0
7,92,0,2,0,768.24,554.84,1515.14,181.39,0,0
7,93,1,24,1,1034.99,448.14,1888.59,394.79,0,0
7,94,2,10,0,1002.98,373.45,1611.17,224.07,0,0
7,95,3,25,1,853.6,576.18,1632.51,192.06,0,0
7,96,1,14,0,874.94,416.13,1653.85,352.11,0,0
7,97,2,8,0,1024.32,522.83,1760.55,202.73,0,0
7,98,0,13,0,885.61,448.14,1557.82,213.4,0,0
7,99,2,13,0,629.53,437.47,1333.75,256.08,0,0
7,100,3,10,0,960.3,416.13,1621.84,234.74,0,0
7,101,2,40,1,874.94,501.49,1579.16,192.06,0,0
7,102,1,20,0,682.88,469.48,1557.82,394.79,0,0
7,103,2,29,1,586.85,469.48,1344.42,277.42,0,0
7,104,3,30,1,672.21,341.44,1259.06,234.74,0,0
7,105,2,25,1,981.64,384.12,1675.19,298.76,0,0
7,106,2,3,0,1045.66,416.13,1675.19,202.73,0,0
7,107,3,24,1,544.17,352.11,1227.05,320.1,0,0
7,108,0,22,1,1045.66,373.45,1653.85,224.07,0,0
7,109,3,19,0,736.23,554.84,1483.13,181.39,0,0
7,110,0,7,0,533.5,490.82,1237.72,202.73,0,0
7,111,0,6,0,650.87,384.12,1269.73,224.07,0,0
7,112,2,6,0,960.3,309.43,1483.13,202.73,0,0
7,113,2,19,0,533.5,373.45,1227.05,309.43,0,0
7,114,2,26,1,608.19,533.5,1355.09,202.73,0,0
7,115,0,25,1,661.54,490.82,1355.09,192.06,0,0
7,116,2,39,1,1067,362.78,1632.51,192.06,1,0
7,117,2,34,1,597.52,448.14,1376.43,320.1,0,0
7,118,0,19,0,1013.65,960.3,2176.68,192.06,0,0
7,119,0,11,0,1024.32,490.82,1803.23,277.42,0,0
7,120,2,30,1,874.94,341.44,1451.12,224.07,1,0
7,121,2,22,1,810.92,352.11,1387.1,213.4,0,0
7,122,3,40,1,757.57,437.47,1440.45,234.74,0,0
7,123,1,9,0,746.9,928.29,1973.95,288.09,1,0
7,124,1,23,1,1045.66,661.54,2134,416.13,0,0
7,125,2,7,0,725.56,416.13,1397.77,245.41,0,0
7,126,1,31,1,597.52,501.49,1525.81,416.13,0,0
7,127,3,12,0,938.96,458.81,1675.19,266.75,0,0
7,128,3,27,1,970.97,394.79,1696.53,320.1,0,0
7,129,0,21,1,960.3,437.47,1696.53,288.09,0,0
7,130,1,26,1,960.3,544.17,1888.59,373.45,0,0
7,131,1,1,0,640.2,437.47,1536.48,448.14,0,0
7,132,3,39,1,640.2,394.79,1301.74,256.08,0,0
7,133,0,17,0,874.94,448.14,1579.16,245.41,0,0
7,134,1,29,1,661.54,522.83,1589.83,394.79,0,0
7,135,1,21,1,821.59,341.44,1547.15,373.45,0,0
7,136,2,38,1,789.58,362.78,1355.09,192.06,0,0
7,137,2,28,1,672.21,341.44,1397.77,373.45,0,0
7,138,2,35,1,992.31,416.13,1664.52,245.41,0,0
7,139,1,37,1,885.61,394.79,1653.85,362.78,0,0
7,140,2,21,1,1002.98,352.11,1589.83,224.07,0,0
7,141,0,35,1,832.26,352.11,1440.45,245.41,0,0
7,142,3,11,0,970.97,2123.33,3307.7,202.73,0,0
7,143,2,27,1,629.53,778.91,1813.9,394.79,0,0
7,144,3,14,0,565.51,522.83,1493.8,394.79,0,0
7,145,2,2,0,906.95,821.59,1973.95,234.74,0,0
7,146,2,17,0,970.97,576.18,1835.24,277.42,0,0
7,147,1,4,0,1013.65,725.56,2144.67,394.79,0,0
7,148,1,32,1,960.3,437.47,1760.55,352.11,0,0
7,149,3,2,0,533.5,480.15,1259.06,234.74,0,0
7,150,3,22,1,853.6,373.45,1504.47,266.75,0,0
7,151,2,15,0,576.18,746.9,1643.18,309.43,0,0
7,152,1,40,1,885.61,682.88,1931.27,352.11,0,0
7,153,1,15,0,704.22,533.5,1568.49,320.1,0,0
7,154,3,16,0,597.52,384.12,1237.72,245.41,0,0
7,155,2,4,0,608.19,394.79,1237.72,224.07,0,0
7,156,3,31,1,789.58,352.11,1397.77,245.41,0,0
7,157,0,28,1,650.87,469.48,1333.75,202.73,0,0
7,158,3,7,0,864.27,298.76,1387.1,213.4,0,1
7,159,2,16,0,1045.66,384.12,1664.52,224.07,0,0
7,160,1,13,0,853.6,533.5,1685.86,288.09,0,0
8,1,0,21,1,533.5,2784.87,3862.54,533.5,0,0
8,2,1,38,1,629.53,2667.5,3926.56,618.86,0,0
8,3,1,16,0,672.21,1216.38,2390.08,490.82,0,0
8,4,0,32,1,618.86,1045.66,2176.68,501.49,0,0
8,5,3,37,1,1067,1792.56,3179.66,309.43,0,0
8,6,2,24,1,949.63,810.92,2176.68,405.46,0,0
8,7,3,6,0,640.2,554.84,1621.84,416.13,0,0
8,8,0,11,0,1034.99,458.81,1781.89,277.42,0,0
8,9,0,8,0,992.31,672.21,2005.96,330.77,0,0
8,10,0,18,0,586.85,2646.16,3521.1,277.42,0,1
8,11,3,18,0,618.86,1632.51,2603.48,341.44,0,1
8,12,3,16,0,970.97,512.16,1771.22,277.42,0,0
8,13,0,15,0,949.63,576.18,1771.22,234.74,0,0
8,14,1,29,1,917.62,512.16,1888.59,448.14,0,0
8,15,2,23,1,992.31,757.57,2048.64,288.09,0,0
8,16,3,25,1,821.59,554.84,1664.52,277.42,0,0
8,17,2,20,0,629.53,693.55,1760.55,426.8,0,0
8,18,0,16,0,832.26,480.15,1568.49,245.41,0,0
8,19,3,34,1,725.56,789.58,1760.55,234.74,0,0
8,20,3,28,1,746.9,426.8,1515.14,330.77,0,0
8,21,1,40,1,960.3,554.84,2358.07,832.26,0,0
8,22,0,38,1,960.3,501.49,1739.21,266.75,0,0
8,23,2,6,0,906.95,320.1,1472.46,234.74,0,0
8,24,0,20,0,992.31,352.11,1525.81,170.72,0,0
8,25,2,32,1,693.55,384.12,1323.08,234.74,0,0
8,26,1,25,1,704.22,469.48,1536.48,352.11,0,0
8,27,0,27,1,1067,298.76,1632.51,256.08,0,0
8,28,2,18,0,906.95,576.18,1760.55,266.75,0,1
8,29,2,10,0,800.25,832.26,1920.6,277.42,0,0
8,30,1,14,0,821.59,373.45,1408.44,202.73,0,0
8,31,2,38,1,640.2,320.1,1227.05,256.08,0,0
8,32,3,10,0,821.59,384.12,1440.45,224.07,0,0
8,33,1,26,1,1002.98,426.8,1717.87,277.42,0,0
8,34,2,17,0,938.96,522.83,1803.23,330.77,0,0
8,35,1,12,0,533.5,1227.05,2048.64,277.42,0,0
8,36,0,26,1,949.63,1109.68,2315.39,245.41,0,0
8,37,1,11,0,800.25,426.8,1504.47,266.75,0,0
8,38,0,9,0,682.88,352.11,1333.75,288.09,0,0
8,39,0,29,1,544.17,373.45,1195.04,266.75,0,0
8,40,2,39,1,554.84,384.12,1216.38,266.75,0,0
8,41,3,33,1,629.53,490.82,1365.76,234.74,0,0
8,42,3,7,0,938.96,394.79,1589.83,245.41,0,0
8,43,0,2,0,714.89,309.43,1248.39,213.4,0,0
8,44,1,19,0,672.21,597.52,1547.15,266.75,0,0
8,45,3,21,1,565.51,330.77,1120.35,213.4,0,0
8,46,3,29,1,778.91,394.79,1397.77,213.4,0,0
8,47,2,11,0,938.96,320.1,1515.14,245.41,0,0
8,48,3,13,0,970.97,448.14,1611.17,181.39,0,0
8,49,2,27,1,682.88,341.44,1259.06,224.07,0,0
8,50,0,3,0,949.63,1141.69,2368.74,266.75,0,0
8,51,3,31,1,672.21,1216.38,2123.33,224.07,0,0
8,52,0,19,0,1013.65,309.43,1717.87,384.12,0,1
8,53,1,33,1,885.61,1045.66,2219.36,277.42,0,0
8,54,3,12,0,928.29,629.53,1803.23,234.74,0,0
8,55,0,28,1,672.21,693.55,1643.18,266.75,0,0
8,56,3,26,1,672.21,384.12,1291.07,224.07,0,0
8,57,3,3,0,960.3,373.45,1600.5,256.08,0,0
8,58,3,11,0,629.53,320.1,1173.7,213.4,0,0
8,59,1,10,0,650.87,384.12,1365.76,320.1,0,0
8,60,2,9,0,842.93,320.1,1451.12,277.42,0,0
8,61,0,10,0,928.29,341.44,1504.47,224.07,0,0
8,62,2,2,0,896.28,352.11,1525.81,266.75,0,0
8,63,1,15,0,938.96,384.12,1568.49,234.74,0,0
8,64,3,17,0,768.24,309.43,1365.76,277.42,0,0
8,65,1,32,1,810.92,405.46,1483.13,256.08,0,0
8,66,3,32,1,949.63,352.11,1557.82,245.41,0,0
8,67,1,13,0,757.57,362.78,1376.43,245.41,0,0
8,68,1,7,0,661.54,416.13,1355.09,266.75,0,0
8,69,3,19,0,917.62,298.76,1461.79,234.74,0,0
8,70,2,30,1,1067,2112.66,3478.42,288.09,0,0
8,71,1,34,1,1045.66,554.84,1888.59,277.42,0,0
8,72,2,15,0,896.28,352.11,1483.13,224.07,0,0
8,73,3,4,0,725.56,565.51,1632.51,330.77,0,0
8,74,0,36,1,1024.32,458.81,1771.22,277.42,0,0
8,75,1,4,0,586.85,352.11,1312.41,362.78,0,0
8,76,2,40,1,885.61,629.53,1973.95,448.14,0,0
8,77,0,6,0,842.93,362.78,1504.47,288.09,0,0
8,78,1,6,0,725.56,298.76,1365.76,330.77,0,0
8,79,2,25,1,960.3,448.14,1760.55,341.44,0,0
8,80,2,1,0,714.89,384.12,1483.13,373.45,0,0
8,81,1,8,0,597.52,330.77,1291.07,352.11,0,0
8,82,2,3,0,736.23,704.22,1728.54,277.42,0,0
8,83,0,5,0,693.55,480.15,1451.12,266.75,0,0
8,84,2,5,0,661.54,309.43,1323.08,341.44,0,0
8,85,3,1,0,608.19,341.44,1227.05,266.75,0,0
8,86,3,14,0,970.97,405.46,1685.86,298.76,0,0
8,87,1,36,1,661.54,416.13,1344.42,256.08,0,0
8,88,2,7,0,565.51,405.46,1269.73,288.09,0,0
8,89,1,28,1,725.56,416.13,1472.46,320.1,0,0
8,90,0,12,0,714.89,362.78,1333.75,245.41,0,0
8,91,3,36,1,725.56,437.47,1195.04,21.34,1,0
8,92,1,39,1,960.3,1109.68,2347.4,266.75,0,0
8,93,1,18,0,736.23,650.87,1685.86,288.09,0,1
8,94,1,5,0,565.51,330.77,1184.37,277.42,0,0
8,95,0,37,1,672.21,298.76,1269.73,288.09,0,0
8,96,3,40,1,778.91,437.47,1419.11,192.06,0,0
8,97,2,37,1,714.89,341.44,1280.4,213.4,0,0
8,98,2,35,1,906.95,629.53,1760.55,213.4,0,0
8,99,3,8,0,746.9,341.44,1301.74,202.73,0,0
8,100,0,25,1,832.26,384.12,1440.45,213.4,0,0
8,101,3,27,1,778.91,362.78,1376.43,224.07,0,0
8,102,1,1,0,672.21,650.87,1589.83,256.08,0,0
8,103,0,35,1,800.25,426.8,1493.8,256.08,0,0
8,104,0,22,1,864.27,405.46,1536.48,256.08,0,0
8,105,2,36,1,661.54,384.12,1323.08,266.75,0,0
8,106,2,28,1,682.88,373.45,1451.12,384.12,0,0
8,107,0,1,0,864.27,1653.85,2710.18,181.39,0,0
8,108,1,24,1,640.2,416.13,1365.76,298.76,0,0
8,109,0,4,0,1034.99,405.46,1664.52,213.4,0,0
8,110,1,27,1,725.56,341.44,1333.75,256.08,0,0
8,111,0,24,1,629.53,384.12,1248.39,224.07,0,0
8,112,2,12,0,778.91,330.77,1333.75,213.4,0,0
8,113,0,14,0,1045.66,373.45,1611.17,181.39,0,1
8,114,3,23,1,586.85,405.46,1269.73,266.75,0,0
8,115,1,31,1,757.57,1984.62,3008.94,256.08,0,0
8,116,1,23,1,917.62,512.16,3393.06,1952.61,0,1
8,117,2,31,1,1002.98,608.19,1973.95,352.11,0,0
8,118,2,26,1,533.5,896.28,1717.87,277.42,0,0
8,119,1,20,0,661.54,394.79,1323.08,256.08,0,0
8,120,2,8,0,832.26,1664.52,2763.53,256.08,0,0
8,121,2,14,0,1024.32,320.1,1653.85,298.76,0,0
8,122,2,34,1,1067,490.82,1867.25,298.76,0,0
8,123,1,17,0,992.31,362.78,1653.85,288.09,0,0
8,124,1,3,0,586.85,426.8,1440.45,416.13,0,0
8,125,3,20,0,565.51,373.45,1216.38,266.75,0,0
8,126,0,30,1,938.96,394.79,1589.83,245.41,0,0
8,127,3,38,1,1002.98,2326.06,3617.13,277.42,0,0
8,128,0,34,1,640.2,405.46,1312.41,256.08,0,0
8,129,1,30,1,682.88,341.44,1269.73,234.74,0,0
8,130,1,22,1,736.23,448.14,1408.44,213.4,0,1
8,131,2,19,0,736.23,533.5,1579.16,298.76,0,0
8,132,2,4,0,853.6,373.45,1504.47,266.75,0,0
8,133,3,5,0,800.25,352.11,1536.48,373.45,0,0
8,134,3,22,1,992.31,885.61,2166.01,277.42,0,0
8,135,1,2,0,970.97,394.79,1664.52,288.09,0,0
8,136,0,31,1,736.23,458.81,1493.8,288.09,0,0
8,137,3,15,0,949.63,394.79,1589.83,234.74,0,0
8,138,2,21,1,736.23,469.48,1515.14,298.76,0,0
8,139,3,30,1,746.9,373.45,1387.1,256.08,0,0
8,140,1,21,1,778.91,320.1,1397.77,288.09,0,0
8,141,1,35,1,768.24,778.91,1824.57,266.75,0,0
8,142,3,39,1,544.17,341.44,1141.69,245.41,0,0
8,143,2,29,1,906.95,480.15,1707.2,309.43,0,0
8,144,0,17,0,842.93,362.78,1451.12,234.74,0,0
8,145,1,37,1,725.56,352.11,1344.42,256.08,0,0
8,146,0,7,0,992.31,320.1,1589.83,266.75,0,0
8,147,3,9,0,938.96,426.8,1632.51,256.08,0,0
8,148,3,2,0,842.93,437.47,1536.48,245.41,0,0
8,149,2,13,0,992.31,437.47,1675.19,234.74,0,0
8,150,0,40,1,1002.98,917.62,2176.68,245.41,0,0
8,151,3,35,1,629.53,746.9,1643.18,256.08,0,0
8,152,2,33,1,768.24,426.8,1483.13,277.42,0,0
8,153,1,9,0,1013.65,405.46,1707.2,277.42,0,0
8,154,2,16,0,736.23,405.46,1429.78,277.42,0,0
8,155,0,39,1,1034.99,405.46,1749.88,298.76,0,0
8,156,0,23,1,768.24,426.8,1451.12,245.41,0,0
8,157,0,33,1,970.97,384.12,1600.5,234.74,0,0
8,158,3,24,1,864.27,426.8,1568.49,266.75,0,0
8,159,2,22,1,693.55,533.5,1483.13,245.41,0,0
8,160,0,13,0,640.2,405.46,1280.4,224.07,0,0
9,1,2,22,1,704.22,672.21,2069.98,682.88,0,0
9,2,1,15,0,960.3,533.5,2101.99,597.52,0,0
9,3,0,19,0,725.56,501.49,1557.82,320.1,0,0
9,4,1,12,0,1045.66,490.82,2059.31,512.16,0,0
9,5,2,2,0,757.57,586.85,1579.16,224.07,0,0
9,6,0,24,1,565.51,864.27,2048.64,608.19,0,0
9,7,2,30,1,693.55,629.53,1515.14,181.39,0,0
9,8,3,15,0,864.27,309.43,1440.45,256.08,0,0
9,9,2,15,0,917.62,810.92,1920.6,181.39,0,0
9,10,1,14,0,693.55,469.48,1589.83,416.13,0,0
9,11,3,6,0,810.92,544.17,1643.18,277.42,0,0
9,12,1,37,1,672.21,437.47,1440.45,320.1,0,0
9,13,2,24,1,629.53,448.14,1312.41,224.07,0,0
9,14,2,8,0,832.26,394.79,1483.13,245.41,0,0
9,15,1,30,1,864.27,373.45,1504.47,256.08,0,0
9,16,3,33,1,725.56,458.81,1419.11,224.07,0,0
9,17,1,28,1,757.57,373.45,1376.43,234.74,1,0
9,18,0,36,1,533.5,437.47,1269.73,288.09,0,0
9,19,0,4,0,565.51,426.8,1280.4,277.42,0,0
9,20,3,39,1,1067,394.79,1707.2,234.74,0,0
9,21,2,9,0,917.62,373.45,1579.16,277.42,0,0
9,22,0,14,0,725.56,384.12,1344.42,224.07,0,0
9,23,1,24,1,821.59,362.78,1493.8,298.76,0,0
9,24,1,21,1,800.25,640.2,1707.2,256.08,0,1
9,25,0,33,1,757.57,362.78,1397.77,266.75,0,0
9,26,3,16,0,597.52,405.46,1269.73,256.08,0,0
9,27,1,10,0,1067,352.11,1664.52,234.74,0,0
9,28,0,18,0,1056.33,298.76,1643.18,277.42,0,0
9,29,2,12,0,1024.32,320.1,1632.51,277.42,0,0
9,30,1,36,1,949.63,650.87,1899.26,288.09,0,0
9,31,3,8,0,565.51,394.79,1237.72,266.75,0,0
9,32,2,3,0,800.25,608.19,1685.86,266.75,0,0
9,33,3,21,1,1067,437.47,1771.22,256.08,0,0
9,34,1,7,0,1067,362.78,1664.52,224.07,0,0
9,35,2,7,0,768.24,341.44,1387.1,266.75,0,0
9,36,1,1,0,1002.98,320.1,1632.51,298.76,0,0
9,37,1,26,1,544.17,352.11,1152.36,245.41,0,1
9,38,0,38,1,917.62,437.47,1643.18,277.42,0,0
9,39,3,23,1,682.88,469.48,1397.77,234.74,0,0
9,40,1,34,1,896.28,437.47,1568.49,224.07,0,0
9,41,0,6,0,640.2,277.42,1173.7,245.41,0,0
9,42,1,16,0,554.84,362.78,1227.05,298.76,0,0
9,43,2,14,0,917.62,373.45,1525.81,224.07,0,0
9,44,2,31,1,885.61,469.48,1685.86,320.1,0,0
9,45,2,11,0,917.62,437.47,1600.5,234.74,0,0
9,46,3,37,1,981.64,522.83,1781.89,266.75,0,0
9,47,3,40,1,1002.98,437.47,1664.52,213.4,0,0
9,48,2,13,0,1045.66,394.79,1664.52,213.4,0,0
9,49,0,20,0,1056.33,330.77,1739.21,341.44,0,0
9,50,2,18,0,874.94,320.1,1419.11,213.4,0,0
9,51,1,25,1,885.61,597.52,1771.22,277.42,0,0
9,52,3,7,0,778.91,362.78,1408.44,256.08,0,0
9,53,3,1,0,597.52,320.1,1195.04,266.75,0,0
9,54,3,5,0,618.86,394.79,1301.74,277.42,0,0
9,55,0,7,0,970.97,298.76,1568.49,288.09,0,0
9,56,2,4,0,576.18,234.74,1120.35,298.76,0,0
9,57,1,17,0,608.19,437.47,1323.08,266.75,0,0
9,58,3,35,1,970.97,437.47,1685.86,266.75,0,0
9,59,1,19,0,672.21,320.1,1312.41,309.43,0,0
9,60,1,18,0,608.19,320.1,1184.37,245.41,0,0
9,61,1,35,1,810.92,480.15,1515.14,213.4,0,1
9,62,2,40,1,693.55,362.78,1323.08,256.08,0,0
9,63,0,16,0,757.57,341.44,1376.43,266.75,0,0
9,64,2,39,1,746.9,298.76,1269.73,213.4,0,0
9,65,3,11,0,864.27,341.44,1419.11,202.73,0,0
9,66,1,33,1,1024.32,405.46,1664.52,224.07,0,0
9,67,1,11,0,746.9,384.12,1397.77,256.08,0,0
9,68,1,2,0,992.31,352.11,1643.18,288.09,0,0
9,69,3,14,0,576.18,309.43,1141.69,245.41,0,0
9,70,3,34,1,938.96,309.43,1525.81,266.75,0,1
9,71,3,20,0,672.21,320.1,1248.39,245.41,0,0
9,72,1,20,0,725.56,341.44,1291.07,213.4,0,0
9,73,2,19,0,874.94,320.1,1515.14,309.43,0,0
9,74,3,29,1,981.64,448.14,1653.85,213.4,0,0
9,75,1,31,1,746.9,416.13,1440.45,266.75,0,0
9,76,0,30,1,832.26,533.5,1632.51,256.08,0,0
9,77,1,22,1,938.96,394.79,1643.18,298.76,0,0
9,78,3,17,0,960.3,384.12,1547.15,192.06,0,0
9,79,1,38,1,970.97,416.13,1664.52,266.75,0,0
9,80,0,1,0,1034.99,362.78,1664.52,256.08,0,0
9,81,2,33,1,832.26,309.43,1451.12,298.76,0,0
9,82,0,21,1,821.59,352.11,1451.12,266.75,0,0
9,83,0,8,0,661.54,608.19,1579.16,298.76,0,0
9,84,2,36,1,672.21,448.14,1376.43,245.41,0,0
9,85,1,6,0,704.22,533.5,1536.48,288.09,0,0
9,86,0,5,0,768.24,608.19,1675.19,288.09,0,1
9,87,0,13,0,618.86,437.47,1397.77,330.77,0,0
9,88,2,6,0,896.28,597.52,1792.56,288.09,0,0
9,89,0,25,1,1013.65,682.88,1941.94,234.74,0,0
9,90,2,1,0,906.95,352.11,1579.16,309.43,0,0
9,91,0,40,1,800.25,490.82,1600.5,298.76,0,0
9,92,1,4,0,650.87,405.46,1483.13,416.13,0,0
9,93,3,13,0,981.64,693.55,1877.92,192.06,0,0
9,94,3,19,0,917.62,320.1,1504.47,256.08,0,0
9,95,0,29,1,757.57,576.18,1632.51,288.09,0,0
9,96,0,35,1,789.58,405.46,1504.47,298.76,0,0
9,97,0,28,1,746.9,458.81,1493.8,277.42,0,0
9,98,1,23,1,544.17,416.13,1376.43,405.46,0,0
9,99,1,29,1,1067,309.43,1600.5,213.4,0,0
9,100,2,28,1,1002.98,394.79,1685.86,277.42,0,0
9,101,3,26,1,544.17,672.21,1557.82,330.77,0,0
9,102,1,32,1,597.52,490.82,1451.12,352.11,0,0
9,103,1,40,1,842.93,298.76,1429.78,277.42,0,0
9,104,3,3,0,778.91,682.88,1696.53,224.07,0,0
9,105,1,8,0,1034.99,320.1,1653.85,288.09,0,0
9,106,2,34,1,1013.65,394.79,1664.52,245.41,0,0
9,107,3,18,0,928.29,384.12,1547.15,224.07,0,0
9,108,0,26,1,789.58,330.77,1397.77,266.75,0,0
9,109,3,32,1,757.57,362.78,1515.14,384.12,0,0
9,110,1,39,1,896.28,384.12,1664.52,373.45,0,0
9,111,3,12,0,714.89,789.58,1707.2,192.06,0,0
9,112,0,22,1,842.93,384.12,1525.81,288.09,0,0
9,113,0,2,0,960.3,373.45,1643.18,298.76,0,0
9,114,0,11,0,533.5,405.46,1312.41,362.78,0,0
9,115,0,23,1,992.31,437.47,1717.87,277.42,0,0
9,116,0,3,0,981.64,544.17,1749.88,213.4,0,0
9,117,0,37,1,672.21,330.77,1365.76,352.11,0,0
9,118,0,12,0,757.57,298.76,1301.74,234.74,0,0
9,119,3,28,1,789.58,373.45,1440.45,266.75,0,0
9,120,2,25,1,778.91,544.17,1707.2,373.45,0,0
9,121,2,37,1,853.6,565.51,1760.55,330.77,0,0
9,122,3,24,1,778.91,384.12,1408.44,234.74,0,0
9,123,2,35,1,597.52,405.46,1237.72,224.07,0,0
9,124,2,26,1,778.91,298.76,1355.09,266.75,0,0
9,125,1,3,0,864.27,266.75,1408.44,266.75,0,0
9,126,2,10,0,693.55,448.14,1408.44,256.08,0,0
9,127,3,22,1,1002.98,394.79,1621.84,213.4,0,0
9,128,3,30,1,981.64,608.19,1931.27,330.77,0,0
9,129,1,13,0,618.86,330.77,1301.74,341.44,0,0
9,130,2,29,1,981.64,437.47,1685.86,256.08,0,0
9,131,1,9,0,533.5,352.11,1237.72,341.44,0,0
9,132,2,38,1,725.56,426.8,1419.11,256.08,0,0
9,133,3,38,1,544.17,266.75,1216.38,394.79,0,0
9,134,3,4,0,949.63,373.45,1600.5,266.75,0,0
9,135,2,5,0,853.6,458.81,1621.84,298.76,0,0
9,136,3,36,1,874.94,480.15,1600.5,234.74,0,0
9,137,3,2,0,1045.66,384.12,1696.53,256.08,0,0
9,138,0,32,1,1024.32,320.1,1760.55,405.46,0,1
9,139,0,27,1,746.9,640.2,1771.22,373.45,0,0
9,140,0,17,0,874.94,544.17,1749.88,320.1,0,0
9,141,2,23,1,586.85,1099.01,1920.6,224.07,0,0
9,142,0,34,1,981.64,416.13,1717.87,309.43,0,0
9,143,2,16,0,768.24,437.47,1557.82,341.44,0,0
9,144,1,5,0,576.18,682.88,1600.5,330.77,0,0
9,145,3,9,0,928.29,330.77,1472.46,202.73,0,0
9,146,3,10,0,1002.98,384.12,1675.19,277.42,0,0
9,147,2,17,0,778.91,405.46,1451.12,256.08,0,0
9,148,0,31,1,565.51,405.46,1323.08,341.44,0,0
9,149,0,39,1,704.22,416.13,1525.81,394.79,0,0
9,150,2,32,1,821.59,469.48,1632.51,330.77,0,0
9,151,3,25,1,917.62,426.8,1600.5,245.41,0,0
9,152,2,20,0,618.86,352.11,1259.06,277.42,0,0
9,153,0,9,0,1013.65,298.76,1664.52,341.44,0,0
9,154,2,21,1,853.6,416.13,1589.83,309.43,0,0
9,155,1,27,1,1056.33,437.47,1696.53,192.06,0,0
9,156,2,27,1,896.28,384.12,1483.13,192.06,0,0
9,157,0,10,0,608.19,384.12,1291.07,288.09,0,0
9,158,3,31,1,981.64,896.28,2134,245.41,0,0
9,159,3,27,1,864.27,384.12,1493.8,234.74,0,0
9,160,0,15,0,554.84,341.44,1152.36,245.41,0,0
10,1,2,1,0,1024.32,864.27,2422.09,522.83,0,0
10,2,1,6,0,960.3,672.21,2123.33,480.15,0,0
10,3,3,17,0,597.52,682.88,1557.82,266.75,0,0
10,4,3,3,0,661.54,554.84,1472.46,245.41,0,0
10,5,3,21,1,629.53,597.52,1493.8,256.08,0,0
10,6,2,7,0,693.55,554.84,1504.47,245.41,0,0
10,7,3,25,1,768.24,714.89,1803.23,309.43,0,1
10,8,0,38,1,640.2,938.96,1803.23,213.4,0,0
10,9,1,28,1,725.56,629.53,1685.86,320.1,0,0
10,10,3,34,1,917.62,661.54,1803.23,213.4,0,0
10,11,2,2,0,1045.66,618.86,1888.59,213.4,0,0
10,12,3,30,1,661.54,490.82,1355.09,192.06,0,0
10,13,0,15,0,576.18,1280.4,2283.38,416.13,0,0
10,14,2,9,0,981.64,768.24,1920.6,160.05,0,0
10,15,0,33,1,1024.32,810.92,2037.97,192.06,0,0
10,16,2,19,0,992.31,768.24,1952.61,181.39,0,0
10,17,2,28,1,576.18,490.82,1323.08,245.41,0,0
10,18,0,11,0,874.94,1280.4,2422.09,256.08,0,0
10,19,1,17,0,1013.65,608.19,1920.6,288.09,0,0
10,20,3,4,0,746.9,490.82,1515.14,266.75,0,0
10,21,1,15,0,576.18,810.92,1717.87,320.1,0,0
10,22,0,24,1,810.92,618.86,1707.2,266.75,0,0
10,23,2,16,0,928.29,693.55,1824.57,192.06,0,0
10,24,3,18,0,1067,554.84,1845.91,213.4,0,0
10,25,0,14,0,938.96,480.15,1664.52,234.74,0,0
10,26,3,1,0,832.26,448.14,1525.81,234.74,0,0
10,27,2,31,1,640.2,1088.34,2069.98,330.77,0,0
10,28,1,31,1,725.56,1675.19,2752.86,341.44,0,0
10,29,1,2,0,736.23,704.22,1707.2,256.08,0,0
10,30,3,36,1,981.64,3819.86,5046.91,234.74,0,0
10,31,0,7,0,917.62,501.49,1685.86,256.08,0,0
10,32,3,10,0,672.21,661.54,1557.82,213.4,0,0
10,33,0,28,1,810.92,512.16,1536.48,202.73,0,0
10,34,2,8,0,682.88,1013.65,1888.59,181.39,0,0
10,35,0,27,1,1045.66,501.49,1739.21,181.39,0,0
10,36,3,20,0,789.58,533.5,1547.15,213.4,0,0
10,37,1,35,1,938.96,618.86,1888.59,320.1,0,0
10,38,1,9,0,640.2,448.14,1429.78,330.77,0,0
10,39,2,39,1,554.84,522.83,1323.08,234.74,0,0
10,40,2,22,1,618.86,661.54,1536.48,245.41,0,0
10,41,1,24,1,746.9,405.46,1451.12,288.09,0,0
10,42,3,26,1,533.5,394.79,1568.49,629.53,0,0
10,43,2,6,0,949.63,458.81,1643.18,224.07,0,0
10,44,0,3,0,629.53,544.17,1408.44,224.07,0,0
10,45,0,31,1,554.84,618.86,1397.77,213.4,0,0
10,46,3,29,1,938.96,672.21,1813.9,192.06,0,0
10,47,3,38,1,586.85,490.82,1323.08,234.74,0,0
10,48,1,11,0,800.25,842.93,1952.61,298.76,0,1
10,49,0,30,1,618.86,437.47,1323.08,256.08,0,0
10,50,0,10,0,864.27,394.79,1525.81,256.08,0,0
10,51,1,7,0,640.2,405.46,1440.45,384.12,0,0
10,52,3,9,0,693.55,618.86,1525.81,202.73,0,0
10,53,3,40,1,725.56,608.19,1600.5,256.08,0,0
10,54,3,32,1,1013.65,597.52,1835.24,213.4,0,0
10,55,0,20,0,757.57,448.14,1408.44,192.06,0,0
10,56,1,3,0,981.64,661.54,1856.58,202.73,1,0
10,57,0,37,1,746.9,768.24,1760.55,234.74,0,0
10,58,1,13,0,1034.99,501.49,1941.94,394.79,0,0
10,59,3,28,1,1045.66,448.14,1728.54,224.07,0,0
10,60,2,34,1,672.21,597.52,1568.49,288.09,0,0
10,61,2,14,0,938.96,586.85,1824.57,288.09,0,0
10,62,0,36,1,1013.65,640.2,1888.59,224.07,0,0
10,63,0,26,1,1024.32,384.12,1653.85,234.74,0,0
10,64,2,26,1,1002.98,490.82,1760.55,256.08,0,0
10,65,2,35,1,746.9,512.16,1483.13,213.4,0,0
10,66,1,26,1,896.28,362.78,1621.84,352.11,0,0
10,67,3,6,0,746.9,576.18,1536.48,202.73,0,0
10,68,0,29,1,960.3,565.51,1728.54,192.06,0,0
10,69,0,9,0,704.22,490.82,1419.11,213.4,0,0
10,70,0,8,0,704.22,490.82,1451.12,245.41,0,0
10,71,3,33,1,1056.33,576.18,1888.59,245.41,0,0
10,72,3,12,0,757.57,501.49,1515.14,245.41,0,0
10,73,0,25,1,650.87,1387.1,2347.4,298.76,0,0
10,74,0,6,0,928.29,490.82,1643.18,213.4,0,0
10,75,1,30,1,746.9,437.47,1568.49,373.45,0,0
10,76,3,19,0,917.62,1205.71,2368.74,234.74,0,0
10,77,3,35,1,874.94,522.83,1621.84,213.4,0,0
10,78,2,18,0,1034.99,501.49,2112.66,565.51,0,0
10,79,3,27,1,885.61,576.18,1675.19,202.73,0,0
10,80,1,20,0,586.85,554.84,1483.13,330.77,0,0
10,81,2,33,1,1034.99,405.46,1664.52,213.4,0,0
10,82,2,3,0,992.31,469.48,1888.59,416.13,0,0
10,83,3,7,0,842.93,458.81,1536.48,224.07,0,0
10,84,0,1,0,1013.65,618.86,1920.6,277.42,0,0
10,85,1,25,1,608.19,672.21,1664.52,373.45,0,0
10,86,0,16,0,608.19,448.14,1301.74,234.74,0,0
10,87,3,23,1,981.64,597.52,1792.56,202.73,0,0
10,88,1,34,1,906.95,533.5,1792.56,341.44,0,0
10,89,2,40,1,874.94,405.46,1515.14,224.07,0,0
10,90,1,5,0,938.96,533.5,1760.55,277.42,0,0
10,91,3,5,0,661.54,896.28,1803.23,234.74,0,0
10,92,2,12,0,981.64,426.8,1643.18,224.07,0,0
10,93,0,32,1,1056.33,554.84,1952.61,330.77,0,0
10,94,2,15,0,938.96,661.54,1867.25,256.08,0,0
10,95,1,4,0,597.52,501.49,1440.45,330.77,0,0
10,96,2,36,1,960.3,608.19,1771.22,192.06,0,0
10,97,2,24,1,1056.33,448.14,1728.54,213.4,0,0
10,98,2,10,0,874.94,490.82,1664.52,288.09,0,0
10,99,0,23,1,874.94,650.87,1845.91,309.43,0,0
10,100,1,38,1,949.63,789.58,2037.97,288.09,0,0
10,101,1,8,0,1056.33,501.49,1984.62,416.13,0,0
10,102,3,16,0,757.57,650.87,1653.85,234.74,0,0
10,103,1,29,1,981.64,512.16,1792.56,288.09,0,0
10,104,1,14,0,576.18,821.59,1771.22,362.78,0,0
10,105,1,27,1,629.53,501.49,1429.78,288.09,0,0
10,106,1,37,1,1013.65,501.49,1803.23,277.42,0,0
10,107,1,18,0,554.84,469.48,1355.09,320.1,0,0
10,108,1,22,1,853.6,512.16,1707.2,330.77,0,0
10,109,0,4,0,576.18,480.15,1323.08,256.08,0,0
10,110,0,34,1,960.3,874.94,2069.98,224.07,0,1
10,111,1,39,1,938.96,469.48,1749.88,330.77,0,0
10,112,2,27,1,714.89,501.49,1483.13,256.08,0,0
10,113,3,39,1,1067,426.8,1675.19,170.72,0,0
10,114,0,39,1,704.22,448.14,1451.12,288.09,0,0
10,115,0,17,0,853.6,554.84,1696.53,277.42,0,0
10,116,1,32,1,661.54,448.14,1483.13,362.78,0,0
10,117,0,2,0,714.89,2166.01,3158.32,266.75,0,0
10,118,0,19,0,874.94,565.51,1664.52,213.4,0,0
10,119,2,11,0,661.54,618.86,1536.48,245.41,0,1
10,120,1,21,1,597.52,480.15,1419.11,330.77,0,0
10,121,1,33,1,874.94,394.79,1472.46,192.06,1,0
10,122,2,23,1,842.93,416.13,1579.16,309.43,0,0
10,123,0,12,0,554.84,458.81,1312.41,288.09,0,0
10,124,3,37,1,832.26,416.13,1483.13,224.07,0,0
10,125,2,21,1,608.19,330.77,1184.37,234.74,0,0
10,126,0,13,0,853.6,2592.81,3905.22,448.14,0,1
10,127,2,5,0,650.87,448.14,1344.42,234.74,0,0
10,128,0,40,1,768.24,416.13,1397.77,202.73,0,0
10,129,3,13,0,992.31,832.26,2016.63,181.39,0,1
10,130,1,40,1,544.17,533.5,1472.46,384.12,0,0
10,131,2,38,1,586.85,458.81,1515.14,458.81,0,0
10,132,2,13,0,1067,576.18,1984.62,330.77,0,0
10,133,3,22,1,917.62,608.19,1739.21,202.73,0,0
10,134,1,12,0,1045.66,640.2,1995.29,298.76,0,0
10,135,2,29,1,650.87,437.47,1312.41,213.4,0,0
10,136,1,10,0,704.22,480.15,1536.48,341.44,0,0
10,137,0,18,0,757.57,501.49,1547.15,277.42,0,0
10,138,2,17,0,672.21,405.46,1323.08,234.74,0,0
10,139,2,32,1,821.59,437.47,1483.13,213.4,0,0
10,140,3,15,0,885.61,682.88,1792.56,213.4,0,0
10,141,3,8,0,800.25,1461.79,2624.82,352.11,0,1
10,142,1,23,1,661.54,501.49,1504.47,330.77,0,0
10,143,0,22,1,1034.99,501.49,1813.9,266.75,0,0
10,144,0,5,0,928.29,426.8,1611.17,245.41,0,0
10,145,1,19,0,661.54,490.82,1515.14,352.11,0,0
10,146,2,37,1,757.57,458.81,1525.81,298.76,0,0
10,147,2,30,1,533.5,480.15,1376.43,352.11,0,0
10,148,2,4,0,1002.98,384.12,1717.87,320.1,0,0
10,149,1,1,0,928.29,810.92,2059.31,309.43,0,1
10,150,3,24,1,672.21,682.88,1632.51,266.75,0,0
10,151,2,25,1,714.89,725.56,1675.19,224.07,0,0
10,152,3,14,0,1045.66,501.49,1824.57,266.75,0,0
10,153,1,16,0,725.56,522.83,1536.48,277.42,0,0
10,154,3,31,1,874.94,608.19,1760.55,266.75,0,0
10,155,3,2,0,714.89,1269.73,2198.02,202.73,0,1
10,156,3,11,0,960.3,586.85,1781.89,224.07,0,1
10,157,1,36,1,661.54,426.8,1397.77,298.76,0,0
10,158,2,20,0,640.2,480.15,1376.43,245.41,0,0
10,159,0,21,1,554.84,480.15,1280.4,234.74,0,0
10,160,0,35,1,565.51,458.81,1280.4,245.41,0,0
11,1,0,21,1,938.96,1312.41,3382.39,1120.35,0,0
11,2,1,32,1,778.91,11843.7,13124.1,490.82,0,0
11,3,0,38,1,746.9,1504.47,2614.15,352.11,0,0
11,4,0,30,1,586.85,736.23,1749.88,416.13,0,0
11,5,0,23,1,672.21,2005.96,2955.59,266.75,0,0
11,6,2,10,0,704.22,810.92,1899.26,373.45,0,0
11,7,2,39,1,970.97,597.52,1920.6,341.44,0,0
11,8,3,39,1,842.93,586.85,1696.53,256.08,0,0
11,9,0,34,1,650.87,1088.34,2112.66,362.78,0,0
11,10,3,5,0,586.85,501.49,1472.46,373.45,0,0
11,11,1,37,1,1056.33,810.92,2368.74,490.82,0,0
11,12,2,2,0,789.58,736.23,1813.9,277.42,0,0
11,13,1,12,0,554.84,629.53,1653.85,458.81,0,0
11,14,2,11,0,821.59,1259.06,2475.44,384.12,0,0
11,15,3,3,0,1034.99,1088.34,2422.09,288.09,0,0
11,16,2,21,1,565.51,608.19,1429.78,245.41,0,0
11,17,2,29,1,1002.98,608.19,1835.24,213.4,0,0
11,18,2,7,0,714.89,661.54,1664.52,277.42,0,0
11,19,1,21,1,1045.66,522.83,2048.64,469.48,0,0
11,20,1,26,1,896.28,661.54,1877.92,309.43,0,0
11,21,3,25,1,725.56,650.87,1611.17,224.07,0,0
11,22,2,19,0,704.22,608.19,1600.5,277.42,0,0
11,23,2,26,1,821.59,522.83,1589.83,234.74,0,0
11,24,2,38,1,842.93,704.22,1835.24,277.42,0,0
11,25,1,4,0,853.6,1312.41,2560.8,384.12,0,0
11,26,1,30,1,768.24,586.85,1653.85,288.09,0,0
11,27,2,12,0,736.23,640.2,1685.86,298.76,0,0
11,28,2,24,1,608.19,1728.54,2571.47,224.07,0,0
11,29,1,34,1,725.56,565.51,1600.5,298.76,0,0
11,30,1,40,1,554.84,650.87,1547.15,330.77,0,0
11,31,1,17,0,1002.98,682.88,2155.34,458.81,0,0
11,32,1,9,0,768.24,2059.31,3126.31,288.09,0,0
11,33,1,28,1,949.63,768.24,1984.62,256.08,0,0
11,34,0,17,0,832.26,853.6,1973.95,277.42,0,0
11,35,3,32,1,970.97,576.18,1792.56,234.74,0,0
11,36,1,36,1,1067,768.24,2198.02,352.11,0,0
11,37,3,33,1,1034.99,1696.53,2987.6,245.41,0,0
11,38,1,24,1,874.94,608.19,1856.58,362.78,0,0
11,39,3,13,0,896.28,533.5,1685.86,245.41,0,0
11,40,3,16,0,597.52,586.85,1419.11,224.07,0,0
11,41,3,15,0,789.58,554.84,1579.16,224.07,0,0
11,42,2,27,1,682.88,544.17,1483.13,245.41,0,0
11,43,0,33,1,810.92,618.86,1717.87,277.42,0,0
11,44,0,35,1,725.56,2347.4,3350.38,266.75,0,1
11,45,1,39,1,746.9,490.82,1589.83,341.44,0,0
11,46,1,19,0,949.63,586.85,1995.29,448.14,0,0
11,47,3,17,0,576.18,544.17,1440.45,309.43,0,0
11,48,1,11,0,746.9,544.17,1781.89,480.15,0,0
11,49,0,9,0,768.24,565.51,1600.5,256.08,0,0
11,50,3,19,0,832.26,842.93,2005.96,320.1,0,0
11,51,1,29,1,608.19,576.18,1611.17,416.13,0,0
11,52,1,35,1,661.54,2080.65,3040.95,288.09,0,1
11,53,3,20,0,661.54,597.52,1493.8,224.07,0,0
11,54,0,16,0,970.97,576.18,1803.23,245.41,0,0
11,55,1,31,1,672.21,1227.05,2262.04,352.11,0,0
11,56,3,35,1,597.52,725.56,1568.49,234.74,0,0
11,57,3,6,0,725.56,522.83,1461.79,202.73,0,0
11,58,0,13,0,608.19,512.16,1376.43,245.41,0,0
11,59,2,8,0,1013.65,554.84,1867.25,288.09,0,0
11,60,3,40,1,714.89,714.89,1845.91,405.46,0,1
11,61,2,34,1,885.61,554.84,1675.19,224.07,0,0
11,62,3,36,1,640.2,490.82,1419.11,277.42,0,0
11,63,2,17,0,917.62,512.16,1696.53,256.08,0,0
11,64,1,8,0,1034.99,693.55,2134,394.79,0,0
11,65,3,24,1,682.88,512.16,1461.79,256.08,0,0
11,66,2,18,0,960.3,938.96,2134,224.07,0,0
11,67,3,10,0,597.52,608.19,1408.44,192.06,0,0
11,68,0,32,1,1034.99,522.83,1888.59,320.1,0,0
11,69,0,29,1,565.51,1131.02,1995.29,288.09,0,0
11,70,3,38,1,896.28,789.58,1920.6,224.07,0,0
11,71,1,33,1,768.24,458.81,1589.83,352.11,0,0
11,72,0,1,0,554.84,608.19,1515.14,341.44,0,0
11,73,3,1,0,1045.66,512.16,1813.9,245.41,0,0
11,74,2,5,0,554.84,650.87,1440.45,224.07,0,0
11,75,2,9,0,618.86,629.53,1472.46,213.4,0,0
11,76,0,5,0,672.21,384.12,1323.08,256.08,0,0
11,77,1,5,0,725.56,458.81,1579.16,384.12,0,0
11,78,0,7,0,992.31,522.83,1835.24,309.43,0,0
11,79,0,4,0,1045.66,618.86,1888.59,213.4,0,0
11,80,2,13,0,714.89,394.79,1355.09,234.74,0,0
11,81,0,15,0,608.19,426.8,1408.44,362.78,0,0
11,82,0,19,0,672.21,437.47,1355.09,234.74,0,0
11,83,0,36,1,682.88,554.84,1536.48,288.09,0,0
11,84,0,31,1,1013.65,458.81,1739.21,256.08,0,0
11,85,2,40,1,800.25,832.26,1867.25,224.07,0,0
11,86,2,15,0,650.87,981.64,1877.92,234.74,0,0
11,87,0,39,1,810.92,714.89,1749.88,213.4,0,0
11,88,2,33,1,864.27,650.87,1739.21,213.4,0,0
11,89,0,40,1,725.56,437.47,1397.77,224.07,0,0
11,90,2,31,1,661.54,416.13,1333.75,245.41,0,0
11,91,1,27,1,618.86,352.11,1355.09,373.45,0,0
11,92,3,4,0,533.5,512.16,1291.07,234.74,0,0
11,93,0,20,0,736.23,650.87,1643.18,245.41,0,0
11,94,1,20,0,640.2,778.91,1771.22,341.44,0,0
11,95,0,3,0,949.63,544.17,1739.21,234.74,0,0
11,96,2,16,0,810.92,533.5,1568.49,213.4,0,0
11,97,3,26,1,885.61,608.19,1707.2,202.73,0,0
11,98,1,1,0,853.6,650.87,1781.89,266.75,0,0
11,99,2,14,0,949.63,565.51,1771.22,245.41,0,0
11,100,3,14,0,928.29,448.14,1685.86,298.76,0,0
11,101,2,4,0,757.57,565.51,1621.84,288.09,0,0
11,102,3,21,1,544.17,672.21,1557.82,330.77,0,0
11,103,1,15,0,928.29,501.49,1739.21,298.76,0,0
11,104,0,10,0,842.93,501.49,1611.17,256.08,0,0
11,105,1,14,0,992.31,394.79,1728.54,330.77,0,0
11,106,2,20,0,672.21,373.45,1301.74,245.41,0,0
11,107,0,24,1,757.57,736.23,1771.22,266.75,0,0
11,108,2,22,1,800.25,768.24,1824.57,245.41,0,0
11,109,3,8,0,992.31,448.14,1664.52,213.4,0,0
11,110,1,16,0,928.29,672.21,1909.93,298.76,0,0
11,111,1,38,1,874.94,458.81,1685.86,341.44,0,0
11,112,2,30,1,896.28,650.87,1792.56,234.74,0,0
11,113,1,18,0,554.84,394.79,1397.77,437.47,0,0
11,114,3,31,1,714.89,469.48,1419.11,224.07,0,0
11,115,2,36,1,693.55,576.18,1536.48,256.08,0,0
11,116,1,25,1,618.86,565.51,1621.84,426.8,0,1
11,117,3,23,1,789.58,394.79,1397.77,202.73,0,0
11,118,2,35,1,576.18,544.17,1344.42,213.4,0,0
11,119,0,37,1,608.19,501.49,1397.77,277.42,0,0
11,120,2,6,0,576.18,576.18,1397.77,234.74,0,0
11,121,0,25,1,693.55,672.21,1621.84,245.41,0,0
11,122,3,37,1,1045.66,544.17,1824.57,224.07,0,0
11,123,3,22,1,672.21,448.14,1344.42,213.4,0,0
11,124,1,13,0,533.5,458.81,1312.41,309.43,0,0
11,125,3,28,1,661.54,437.47,1323.08,213.4,0,0
11,126,0,14,0,821.59,458.81,1515.14,224.07,0,0
11,127,0,11,0,800.25,661.54,1696.53,224.07,0,0
11,128,2,37,1,906.95,448.14,1557.82,192.06,0,0
11,129,2,1,0,672.21,725.56,1632.51,224.07,0,0
11,130,3,9,0,650.87,597.52,1461.79,202.73,0,0
11,131,0,6,0,864.27,608.19,1707.2,224.07,0,0
11,132,0,12,0,800.25,426.8,1451.12,213.4,0,0
11,133,2,32,1,618.86,522.83,1365.76,213.4,0,0
11,134,1,10,0,928.29,544.17,1824.57,341.44,0,0
11,135,3,27,1,874.94,768.24,1877.92,224.07,0,0
11,136,1,7,0,746.9,597.52,1675.19,320.1,0,0
11,137,0,27,1,960.3,682.88,1888.59,234.74,0,0
11,138,1,6,0,1056.33,458.81,1973.95,448.14,0,0
11,139,3,7,0,842.93,384.12,1515.14,277.42,0,0
11,140,0,22,1,917.62,426.8,1728.54,373.45,0,0
11,141,3,30,1,586.85,565.51,1376.43,213.4,0,0
11,142,1,3,0,906.95,1931.27,3211.67,362.78,0,0
11,143,0,18,0,693.55,650.87,1664.52,309.43,0,0
11,144,0,2,0,544.17,597.52,1536.48,384.12,0,0
11,145,3,34,1,565.51,1472.46,2304.72,256.08,0,0
11,146,2,23,1,672.21,874.94,1813.9,256.08,0,0
11,147,0,28,1,821.59,405.46,1579.16,341.44,0,0
11,148,1,2,0,1034.99,1803.23,3233.01,384.12,0,0
11,149,1,23,1,1045.66,480.15,1931.27,394.79,0,0
11,150,2,3,0,768.24,448.14,1493.8,266.75,0,0
11,151,2,28,1,1034.99,864.27,2166.01,256.08,0,0
11,152,3,29,1,1067,960.3,2368.74,330.77,0,0
11,153,0,8,0,672.21,992.31,2048.64,373.45,0,0
11,154,1,22,1,608.19,480.15,1419.11,320.1,0,0
11,155,3,18,0,672.21,448.14,1376.43,245.41,0,0
11,156,3,12,0,938.96,736.23,1888.59,202.73,0,0
11,157,0,26,1,970.97,1589.83,2944.92,373.45,0,0
11,158,3,2,0,1024.32,458.81,1707.2,213.4,0,0
11,159,2,25,1,746.9,768.24,1739.21,213.4,0,0
11,160,3,11,0,1045.66,480.15,1760.55,224.07,0,0
12,1,2,28,1,864.27,1632.51,3136.98,629.53,0,0
12,2,0,12,0,714.89,810.92,2592.81,1056.33,0,0
12,3,3,19,0,906.95,1034.99,2571.47,618.86,0,0
12,4,3,37,1,736.23,725.56,1749.88,277.42,0,0
12,5,0,31,1,906.95,693.55,2005.96,394.79,0,0
12,6,1,13,0,586.85,501.49,1483.13,384.12,0,0
12,7,0,2,0,917.62,565.51,1824.57,330.77,0,0
12,8,2,36,1,778.91,864.27,1952.61,298.76,0,1
12,9,3,23,1,725.56,661.54,1653.85,256.08,0,0
12,10,1,32,1,661.54,1131.02,2347.4,544.17,0,0
12,11,1,19,0,864.27,480.15,1792.56,437.47,0,0
12,12,0,13,0,789.58,458.81,1600.5,341.44,0,0
12,13,3,21,1,928.29,725.56,1867.25,202.73,0,0
12,14,0,36,1,1024.32,512.16,1877.92,330.77,0,0
12,15,0,5,0,1002.98,885.61,2155.34,256.08,0,0
12,16,0,15,0,1067,917.62,2251.37,256.08,0,1
12,17,2,34,1,928.29,1034.99,2219.36,245.41,0,1
12,18,2,38,1,704.22,650.87,1643.18,277.42,0,1
12,19,2,3,0,906.95,672.21,1867.25,277.42,0,0
12,20,3,18,0,832.26,554.84,1643.18,245.41,0,0
12,21,2,17,0,618.86,597.52,1611.17,384.12,0,0
12,22,1,3,0,757.57,384.12,1525.81,373.45,0,0
12,23,2,6,0,597.52,394.79,1280.4,277.42,0,0
12,24,2,10,0,714.89,320.1,1344.42,298.76,0,0
12,25,1,27,1,800.25,416.13,1589.83,362.78,0,0
12,26,0,10,0,672.21,394.79,1440.45,362.78,0,0
12,27,0,25,1,874.94,608.19,1792.56,298.76,0,0
12,28,1,8,0,885.61,565.51,1760.55,298.76,0,0
12,29,1,30,1,597.52,416.13,1419.11,394.79,0,0
12,30,3,36,1,1024.32,917.62,2230.03,277.42,0,0
12,31,2,4,0,714.89,490.82,1483.13,266.75,0,0
12,32,3,39,1,533.5,405.46,1216.38,266.75,0,0
12,33,1,22,1,640.2,469.48,1451.12,330.77,0,0
12,34,3,40,1,693.55,437.47,1387.1,245.41,0,0
12,35,2,7,0,1024.32,405.46,1963.28,522.83,0,0
12,36,3,11,0,1013.65,426.8,1664.52,213.4,0,0
12,37,0,7,0,682.88,426.8,1429.78,309.43,0,0
12,38,1,6,0,1013.65,416.13,1717.87,277.42,0,0
12,39,0,37,1,608.19,394.79,1429.78,416.13,0,0
12,40,2,5,0,629.53,640.2,1525.81,245.41,0,0
12,41,3,17,0,693.55,512.16,1536.48,320.1,0,0
12,42,2,35,1,821.59,842.93,1973.95,298.76,0,0
12,43,0,18,0,1056.33,362.78,1717.87,288.09,0,0
12,44,1,24,1,768.24,458.81,1504.47,266.75,0,0
12,45,2,22,1,842.93,448.14,1589.83,288.09,0,0
12,46,0,29,1,864.27,448.14,1632.51,309.43,0,0
12,47,1,34,1,960.3,576.18,1867.25,320.1,0,1
12,48,2,14,0,1002.98,554.84,1867.25,298.76,0,0
12,49,2,33,1,853.6,362.78,1557.82,330.77,0,1
12,50,2,19,0,896.28,458.81,1632.51,266.75,0,0
12,51,3,9,0,1067,480.15,1845.91,288.09,0,0
12,52,1,18,0,938.96,330.77,1568.49,288.09,0,0
12,53,2,8,0,608.19,501.49,1547.15,426.8,0,0
12,54,2,40,1,597.52,373.45,1248.39,266.75,0,0
12,55,1,28,1,1024.32,480.15,1803.23,288.09,0,0
12,56,0,27,1,768.24,352.11,1536.48,405.46,0,0
12,57,1,9,0,618.86,512.16,1472.46,330.77,0,0
12,58,1,16,0,565.51,480.15,1344.42,288.09,0,0
12,59,0,6,0,981.64,416.13,1781.89,373.45,0,0
12,60,2,15,0,885.61,405.46,1579.16,277.42,0,0
12,61,3,14,0,789.58,448.14,1504.47,256.08,0,0
12,62,0,40,1,928.29,736.23,1963.28,288.09,0,0
12,63,1,40,1,928.29,330.77,1557.82,288.09,0,0
12,64,3,38,1,714.89,949.63,1920.6,245.41,0,1
12,65,2,29,1,693.55,682.88,1643.18,256.08,0,0
12,66,3,24,1,576.18,490.82,1344.42,266.75,0,0
12,67,3,3,0,1067,426.8,1749.88,245.41,0,0
12,68,3,15,0,1002.98,490.82,1760.55,256.08,0,0
12,69,2,1,0,704.22,522.83,1579.16,341.44,0,0
12,70,3,20,0,778.91,352.11,1387.1,245.41,0,0
12,71,0,39,1,1056.33,405.46,1739.21,266.75,0,0
12,72,0,23,1,810.92,736.23,1888.59,330.77,0,0
12,73,2,2,0,906.95,394.79,1589.83,277.42,0,0
12,74,1,14,0,853.6,394.79,1675.19,416.13,0,0
12,75,3,1,0,650.87,565.51,1472.46,245.41,0,0
12,76,3,33,1,736.23,437.47,1483.13,298.76,0,0
12,77,1,12,0,981.64,586.85,1941.94,362.78,0,0
12,78,2,24,1,693.55,373.45,1355.09,277.42,0,0
12,79,1,20,0,1002.98,384.12,1696.53,298.76,0,0
12,80,1,33,1,960.3,416.13,1611.17,224.07,0,0
12,81,3,26,1,629.53,448.14,1493.8,405.46,0,0
12,82,2,30,1,1002.98,565.51,1877.92,298.76,0,0
12,83,0,1,0,565.51,394.79,1323.08,352.11,0,0
12,84,1,31,1,885.61,458.81,1621.84,266.75,0,0
12,85,0,14,0,992.31,405.46,1803.23,394.79,0,0
12,86,0,9,0,1024.32,384.12,1696.53,277.42,0,0
12,87,1,5,0,992.31,394.79,1771.22,373.45,0,0
12,88,2,16,0,832.26,330.77,1429.78,256.08,0,0
12,89,3,4,0,800.25,416.13,1429.78,202.73,0,0
12,90,1,21,1,714.89,448.14,1461.79,288.09,0,0
12,91,1,37,1,778.91,437.47,1483.13,256.08,0,0
12,92,1,29,1,768.24,362.78,1419.11,277.42,0,0
12,93,0,17,0,586.85,501.49,1536.48,437.47,0,0
12,94,2,12,0,618.86,405.46,1451.12,416.13,0,0
12,95,0,38,1,629.53,629.53,1579.16,309.43,0,1
12,96,1,39,1,704.22,341.44,1365.76,309.43,0,0
12,97,0,3,0,672.21,405.46,1376.43,288.09,0,0
12,98,0,33,1,714.89,416.13,1429.78,288.09,0,0
12,99,3,34,1,1034.99,426.8,1685.86,213.4,0,1
12,100,0,34,1,821.59,501.49,1611.17,277.42,0,1
12,101,2,39,1,544.17,405.46,1269.73,309.43,0,0
12,102,1,36,1,640.2,437.47,1365.76,277.42,0,0
12,103,1,25,1,533.5,501.49,1301.74,256.08,0,0
12,104,0,32,1,821.59,384.12,1504.47,288.09,0,0
12,105,0,4,0,938.96,448.14,1621.84,224.07,0,0
12,106,3,35,1,736.23,416.13,1419.11,256.08,0,0
12,107,1,7,0,714.89,469.48,1429.78,234.74,0,0
12,108,3,29,1,597.52,352.11,1269.73,309.43,0,0
12,109,3,10,0,896.28,458.81,1600.5,234.74,0,0
12,110,1,17,0,629.53,437.47,1333.75,256.08,0,0
12,111,0,16,0,533.5,341.44,1227.05,341.44,0,0
12,112,3,13,0,640.2,384.12,1280.4,245.41,0,0
12,113,2,27,1,618.86,384.12,1312.41,298.76,0,0
12,114,1,2,0,853.6,384.12,1600.5,352.11,0,0
12,115,2,25,1,576.18,426.8,1323.08,309.43,0,0
12,116,0,28,1,874.94,394.79,1621.84,341.44,0,0
12,117,3,25,1,778.91,384.12,1429.78,256.08,0,0
12,118,3,28,1,533.5,341.44,1131.02,245.41,0,0
12,119,2,9,0,810.92,394.79,1536.48,320.1,0,0
12,120,2,11,0,544.17,640.2,1461.79,266.75,0,0
12,121,1,11,0,672.21,480.15,1504.47,341.44,0,0
12,122,1,26,1,565.51,394.79,1205.71,234.74,0,0
12,123,3,12,0,1045.66,373.45,1675.19,245.41,0,0
12,124,2,31,1,810.92,490.82,1547.15,234.74,0,0
12,125,0,8,0,1056.33,554.84,1952.61,330.77,0,0
12,126,0,20,0,938.96,362.78,1643.18,330.77,0,0
12,127,2,23,1,565.51,469.48,1387.1,341.44,0,0
12,128,2,26,1,928.29,373.45,1653.85,341.44,0,0
12,129,3,2,0,757.57,416.13,1419.11,234.74,0,0
12,130,0,30,1,533.5,330.77,1163.03,288.09,0,0
12,131,3,31,1,586.85,384.12,1216.38,234.74,0,0
12,132,1,4,0,618.86,608.19,1504.47,266.75,0,0
12,133,0,21,1,1013.65,405.46,1717.87,288.09,0,0
12,134,2,18,0,970.97,394.79,1696.53,320.1,0,0
12,135,3,27,1,842.93,416.13,1472.46,202.73,0,0
12,136,3,6,0,586.85,458.81,1280.4,224.07,0,0
12,137,0,22,1,928.29,373.45,1600.5,288.09,0,0
12,138,1,10,0,1067,405.46,1749.88,266.75,0,0
12,139,3,8,0,1002.98,352.11,1600.5,234.74,0,0
12,140,1,23,1,960.3,416.13,1760.55,373.45,0,0
12,141,1,35,1,832.26,533.5,1632.51,256.08,0,0
12,142,3,30,1,917.62,320.1,1472.46,224.07,0,0
12,143,2,21,1,714.89,298.76,1269.73,245.41,0,0
12,144,3,5,0,970.97,512.16,1739.21,245.41,0,0
12,145,2,20,0,1034.99,394.79,1739.21,298.76,0,0
12,146,2,13,0,533.5,373.45,1227.05,309.43,0,0
12,147,2,37,1,896.28,405.46,1589.83,277.42,0,0
12,148,0,19,0,1002.98,885.61,2198.02,298.76,0,0
12,149,3,7,0,757.57,426.8,1504.47,309.43,0,0
12,150,2,32,1,618.86,426.8,1408.44,352.11,0,0
12,151,0,35,1,618.86,384.12,1323.08,309.43,0,0
12,152,1,15,0,981.64,469.48,1696.53,234.74,0,0
12,153,1,38,1,864.27,416.13,1664.52,373.45,0,1
12,154,1,1,0,1002.98,394.79,1664.52,256.08,0,0
12,155,0,24,1,757.57,352.11,1461.79,341.44,0,0
12,156,3,22,1,789.58,394.79,1387.1,192.06,0,0
12,157,3,16,0,906.95,416.13,1589.83,256.08,0,0
12,158,3,32,1,853.6,373.45,1472.46,234.74,0,0
12,159,0,26,1,746.9,352.11,1579.16,469.48,0,0
12,160,0,11,0,1067,810.92,2155.34,266.75,0,0
13,1,1,26,1,906.95,778.91,2187.35,490.82,0,1
13,2,2,26,1,757.57,1237.72,2379.41,373.45,0,1
13,3,2,18,0,992.31,949.63,2219.36,266.75,0,0
13,4,0,29,1,704.22,3766.51,4929.54,448.14,0,0
13,5,0,21,1,533.5,832.26,1611.17,234.74,0,0
13,6,2,25,1,1024.32,778.91,2112.66,298.76,0,0
13,7,1,32,1,1024.32,640.2,1941.94,266.75,0,0
13,8,0,2,0,896.28,1045.66,2240.7,288.09,0,1
13,9,3,12,0,778.91,586.85,1664.52,288.09,0,0
13,10,3,26,1,565.51,672.21,1504.47,256.08,0,0
13,11,3,10,0,832.26,544.17,1653.85,266.75,0,0
13,12,2,40,1,938.96,426.8,1611.17,234.74,0,0
13,13,2,23,1,650.87,810.92,1707.2,234.74,0,0
13,14,1,5,0,917.62,448.14,1707.2,330.77,0,0
13,15,3,13,0,576.18,501.49,1387.1,298.76,0,0
13,16,1,20,0,810.92,469.48,1547.15,256.08,0,0
13,17,3,1,0,906.95,853.6,2005.96,234.74,0,0
13,18,2,39,1,640.2,544.17,1429.78,234.74,0,0
13,19,0,5,0,1045.66,682.88,2219.36,480.15,0,0
13,20,0,17,0,597.52,565.51,1515.14,341.44,0,0
13,21,3,21,1,810.92,501.49,1536.48,213.4,0,0
13,22,0,40,1,544.17,554.84,1440.45,330.77,0,0
13,23,0,16,0,1067,597.52,1909.93,234.74,0,0
13,24,2,16,0,949.63,394.79,1536.48,181.39,0,0
13,25,2,20,0,896.28,405.46,1557.82,245.41,0,0
13,26,2,14,0,746.9,469.48,1515.14,288.09,0,0
13,27,0,31,1,885.61,650.87,1813.9,266.75,0,0
13,28,3,18,0,554.84,501.49,1344.42,277.42,0,0
13,29,2,6,0,672.21,661.54,1739.21,394.79,0,0
13,30,0,7,0,629.53,746.9,1728.54,341.44,0,0
13,31,3,9,0,576.18,490.82,1579.16,501.49,0,0
13,32,2,37,1,629.53,533.5,1483.13,309.43,0,0
13,33,2,29,1,533.5,576.18,1440.45,320.1,0,0
13,34,2,9,0,554.84,437.47,1227.05,224.07,0,0
13,35,0,3,0,618.86,682.88,1707.2,394.79,0,0
13,36,1,31,1,714.89,682.88,1707.2,298.76,0,0
13,37,2,34,1,1002.98,714.89,2027.3,298.76,0,1
13,38,3,8,0,1045.66,554.84,1888.59,277.42,0,0
13,39,0,34,1,576.18,480.15,1568.49,501.49,0,1
13,40,1,6,0,938.96,544.17,1792.56,298.76,0,0
13,41,2,38,1,853.6,1333.75,2507.45,309.43,0,0
13,42,0,8,0,565.51,906.95,1877.92,394.79,0,0
13,43,0,19,0,789.58,533.5,1739.21,405.46,0,0
13,44,1,39,1,693.55,501.49,1547.15,341.44,0,0
13,45,3,14,0,1013.65,394.79,1728.54,309.43,0,0
13,46,2,31,1,821.59,490.82,1621.84,298.76,0,0
13,47,3,3,0,992.31,842.93,2134,288.09,0,0
13,48,2,8,0,746.9,661.54,1749.88,330.77,0,0
13,49,1,2,0,864.27,458.81,1547.15,213.4,0,0
13,50,0,24,1,629.53,458.81,1408.44,309.43,0,0
13,51,2,5,0,789.58,437.47,1504.47,266.75,0,0
13,52,0,13,0,1013.65,714.89,2123.33,384.12,0,0
13,53,1,40,1,640.2,373.45,1291.07,266.75,0,0
13,54,1,1,0,714.89,405.46,1408.44,277.42,0,0
13,55,2,2,0,597.52,437.47,1312.41,266.75,0,0
13,56,3,11,0,1056.33,426.8,1760.55,266.75,0,0
13,57,0,15,0,896.28,640.2,1899.26,352.11,0,0
13,58,0,27,1,746.9,501.49,1643.18,384.12,0,0
13,59,1,38,1,832.26,928.29,2112.66,341.44,0,0
13,60,2,3,0,682.88,458.81,1333.75,181.39,0,0
13,61,0,35,1,1067,565.51,1984.62,341.44,0,0
13,62,2,21,1,544.17,544.17,1408.44,309.43,0,0
13,63,1,27,1,586.85,522.83,1397.77,277.42,0,0
13,64,3,35,1,533.5,373.45,1184.37,266.75,0,0
13,65,2,33,1,714.89,437.47,1397.77,234.74,0,0
13,66,1,21,1,640.2,352.11,1184.37,181.39,0,0
13,67,3,5,0,746.9,352.11,1397.77,288.09,0,1
13,68,3,6,0,789.58,394.79,1429.78,234.74,0,0
13,69,1,12,0,970.97,437.47,1696.53,277.42,0,0
13,70,2,4,0,608.19,640.2,1504.47,245.41,0,0
13,71,3,22,1,768.24,512.16,1515.14,224.07,0,0
13,72,3,2,0,917.62,416.13,1568.49,224.07,0,0
13,73,1,29,1,672.21,533.5,1504.47,288.09,0,0
13,74,1,13,0,565.51,480.15,1365.76,309.43,0,0
13,75,3,20,0,864.27,661.54,1835.24,298.76,0,0
13,76,1,15,0,597.52,480.15,1323.08,234.74,0,0
13,77,2,1,0,576.18,490.82,1301.74,224.07,0,0
13,78,1,24,1,896.28,490.82,1696.53,298.76,0,0
13,79,0,30,1,864.27,576.18,1899.26,448.14,0,0
13,80,3,29,1,714.89,736.23,2390.08,928.29,0,0
13,81,3,27,1,693.55,586.85,1515.14,224.07,0,0
13,82,1,33,1,917.62,544.17,1824.57,352.11,0,0
13,83,1,28,1,746.9,725.56,1792.56,309.43,0,0
13,84,3,15,0,1034.99,565.51,1845.91,234.74,0,0
13,85,0,11,0,928.29,586.85,1952.61,426.8,0,0
13,86,2,27,1,746.9,810.92,1813.9,245.41,0,0
13,87,3,32,1,640.2,842.93,1856.58,362.78,0,0
13,88,0,22,1,736.23,448.14,1963.28,768.24,0,0
13,89,3,33,1,544.17,416.13,1237.72,266.75,0,0
13,90,0,12,0,938.96,533.5,1824.57,341.44,0,1
13,91,0,9,0,1034.99,405.46,1685.86,234.74,0,0
13,92,0,6,0,810.92,416.13,1472.46,234.74,0,0
13,93,1,22,1,618.86,469.48,1451.12,352.11,0,0
13,94,1,23,1,1013.65,672.21,2037.97,341.44,0,0
13,95,0,4,0,576.18,458.81,1312.41,266.75,0,0
13,96,3,38,1,714.89,490.82,1451.12,234.74,0,0
13,97,1,8,0,1067,458.81,1792.56,256.08,1,0
13,98,1,14,0,1045.66,1344.42,2678.17,277.42,0,0
13,99,2,19,0,917.62,469.48,1664.52,266.75,0,0
13,100,3,7,0,629.53,458.81,1771.22,672.21,0,0
13,101,3,24,1,928.29,480.15,1664.52,245.41,0,0
13,102,0,28,1,576.18,490.82,1472.46,394.79,0,0
13,103,0,25,1,661.54,725.56,1717.87,320.1,0,0
13,104,3,17,0,1024.32,480.15,1792.56,277.42,0,0
13,105,2,15,0,800.25,682.88,1781.89,288.09,0,0
13,106,0,18,0,981.64,416.13,1664.52,256.08,0,0
13,107,3,28,1,992.31,469.48,1739.21,266.75,0,0
13,108,0,39,1,533.5,448.14,1333.75,341.44,0,0
13,109,2,32,1,874.94,437.47,1547.15,224.07,0,0
13,110,0,38,1,789.58,426.8,1461.79,234.74,0,0
13,111,1,34,1,885.61,394.79,1781.89,490.82,0,0
13,112,1,30,1,714.89,362.78,1387.1,298.76,0,0
13,113,2,36,1,1024.32,800.25,2037.97,202.73,0,0
13,114,3,37,1,885.61,384.12,1493.8,213.4,0,0
13,115,1,37,1,992.31,352.11,1611.17,256.08,0,0
13,116,2,24,1,938.96,330.77,1504.47,224.07,0,0
13,117,1,11,0,874.94,362.78,1600.5,352.11,0,1
13,118,3,30,1,693.55,373.45,1323.08,245.41,0,0
13,119,3,19,0,810.92,458.81,1504.47,224.07,0,0
13,120,0,23,1,981.64,469.48,1643.18,181.39,0,0
13,121,2,11,0,725.56,373.45,1429.78,320.1,0,0
13,122,2,28,1,682.88,384.12,1195.04,117.37,1,0
13,123,0,37,1,682.88,565.51,1579.16,320.1,0,0
13,124,1,25,1,1013.65,405.46,1749.88,320.1,0,0
13,125,1,16,0,1067,373.45,1664.52,213.4,1,0
13,126,3,16,0,672.21,394.79,1408.44,330.77,0,1
13,127,1,4,0,960.3,682.88,1973.95,320.1,0,0
13,128,2,17,0,864.27,394.79,1483.13,213.4,0,0
13,129,1,35,1,1024.32,426.8,1675.19,213.4,0,1
13,130,3,34,1,640.2,394.79,1291.07,245.41,0,1
13,131,2,10,0,821.59,362.78,1419.11,224.07,0,0
13,132,0,36,1,672.21,309.43,1387.1,394.79,0,1
13,133,2,30,1,725.56,394.79,1408.44,277.42,0,0
13,134,0,14,0,746.9,437.47,1429.78,234.74,0,1
13,135,1,17,0,736.23,362.78,1429.78,320.1,0,0
13,136,1,19,0,992.31,757.57,1952.61,192.06,1,0
13,137,0,20,0,682.88,1717.87,2816.88,405.46,0,0
13,138,2,35,1,1013.65,458.81,1824.57,341.44,0,0
13,139,0,1,0,1013.65,1536.48,3040.95,480.15,0,0
13,140,2,7,0,640.2,1333.75,2336.73,352.11,0,0
13,141,1,3,0,938.96,437.47,1621.84,234.74,0,0
13,142,0,33,1,618.86,362.78,1291.07,298.76,0,1
13,143,1,7,0,565.51,512.16,1451.12,362.78,0,1
13,144,2,13,0,800.25,362.78,1472.46,298.76,0,0
13,145,1,9,0,1034.99,437.47,1931.27,448.14,0,0
13,146,3,31,1,832.26,544.17,1771.22,384.12,0,0
13,147,3,25,1,928.29,480.15,1685.86,266.75,0,0
13,148,1,10,0,714.89,565.51,1589.83,298.76,0,0
13,149,1,18,0,650.87,544.17,1440.45,234.74,0,0
13,150,0,26,1,672.21,426.8,1461.79,352.11,0,0
13,151,3,39,1,1056.33,480.15,1824.57,277.42,0,0
13,152,3,36,1,714.89,458.81,1461.79,277.42,0,0
13,153,0,32,1,704.22,501.49,1525.81,309.43,0,0
13,154,2,12,0,725.56,394.79,1461.79,330.77,0,0
13,155,0,10,0,597.52,597.52,1760.55,554.84,0,0
13,156,3,4,0,650.87,416.13,1429.78,352.11,0,0
13,157,3,40,1,1002.98,789.58,2069.98,266.75,0,1
13,158,2,22,1,864.27,2272.71,3457.08,309.43,0,0
13,159,3,23,1,544.17,501.49,1323.08,266.75,0,0
13,160,1,36,1,650.87,448.14,1429.78,320.1,0,0
14,1,1,40,1,970.97,1675.19,3115.64,458.81,0,0
14,2,2,38,1,949.63,1952.61,3158.32,245.41,0,1
14,3,1,23,1,1002.98,672.21,1909.93,224.07,0,0
14,4,1,33,1,778.91,448.14,1568.49,330.77,0,0
14,5,1,18,0,640.2,405.46,1301.74,245.41,0,0
14,6,3,21,1,832.26,1024.32,2091.32,224.07,0,0
14,7,1,27,1,832.26,533.5,1579.16,202.73,0,0
14,8,0,12,0,853.6,512.16,1696.53,320.1,0,0
14,9,2,36,1,778.91,480.15,1568.49,298.76,0,0
14,10,1,31,1,704.22,533.5,1600.5,352.11,0,0
14,11,2,13,0,757.57,480.15,1472.46,224.07,0,0
14,12,0,39,1,1013.65,405.46,1707.2,277.42,0,0
14,13,0,34,1,618.86,1557.82,2539.46,352.11,0,0
14,14,0,15,0,736.23,640.2,1600.5,213.4,0,0
14,15,2,23,1,650.87,448.14,1451.12,341.44,0,0
14,16,0,27,1,693.55,608.19,1525.81,213.4,0,0
14,17,2,9,0,554.84,469.48,1259.06,224.07,0,0
14,18,3,35,1,576.18,1632.51,2539.46,320.1,0,0
14,19,0,2,0,1056.33,490.82,1771.22,213.4,0,0
14,20,3,40,1,1002.98,544.17,1813.9,256.08,0,0
14,21,2,4,0,1056.33,608.19,1867.25,192.06,0,0
14,22,0,24,1,885.61,490.82,1589.83,202.73,1,0
14,23,3,17,0,618.86,746.9,1717.87,341.44,0,0
14,24,2,14,0,885.61,554.84,1643.18,192.06,0,0
14,25,3,30,1,1013.65,650.87,1899.26,224.07,0,0
14,26,0,1,0,842.93,554.84,1611.17,202.73,0,0
14,27,3,3,0,789.58,576.18,1600.5,224.07,0,0
14,28,1,1,0,885.61,672.21,1973.95,405.46,0,1
14,29,0,32,1,576.18,1259.06,2187.35,341.44,0,0
14,30,2,3,0,565.51,1088.34,1941.94,277.42,0,0
14,31,0,9,0,778.91,757.57,1781.89,234.74,0,0
14,32,3,38,1,1002.98,661.54,1973.95,298.76,0,0
14,33,2,24,1,992.31,1259.06,2475.44,213.4,0,0
14,34,3,39,1,874.94,480.15,1664.52,298.76,0,0
14,35,0,38,1,672.21,490.82,1611.17,437.47,0,0
14,36,3,15,0,650.87,842.93,1739.21,234.74,0,0
14,37,1,8,0,736.23,597.52,1632.51,288.09,0,0
14,38,1,37,1,757.57,469.48,1579.16,341.44,0,0
14,39,1,25,1,906.95,1077.67,2646.16,650.87,0,0
14,40,3,23,1,757.57,469.48,1493.8,256.08,0,0
14,41,1,20,0,949.63,448.14,1621.84,213.4,0,0
14,42,1,17,0,938.96,714.89,1867.25,202.73,0,0
14,43,0,11,0,565.51,469.48,1365.76,320.1,0,0
14,44,3,20,0,917.62,394.79,1579.16,256.08,0,0
14,45,3,16,0,917.62,565.51,1771.22,277.42,0,0
14,46,0,22,1,597.52,576.18,1451.12,266.75,0,0
14,47,2,35,1,725.56,469.48,1472.46,266.75,0,0
14,48,3,12,0,1067,405.46,1728.54,245.41,0,0
14,49,2,27,1,960.3,714.89,1899.26,213.4,0,0
14,50,3,5,0,565.51,437.47,1344.42,330.77,0,1
14,51,1,39,1,554.84,394.79,1259.06,298.76,0,0
14,52,1,22,1,981.64,405.46,1664.52,266.75,0,0
14,53,1,30,1,576.18,426.8,1323.08,309.43,0,0
14,54,3,29,1,1067,682.88,2037.97,277.42,0,0
14,55,0,23,1,789.58,352.11,1451.12,298.76,0,0
14,56,1,4,0,1067,426.8,1792.56,288.09,0,0
14,57,1,34,1,1056.33,437.47,1781.89,277.42,0,0
14,58,1,5,0,853.6,394.79,1568.49,309.43,0,1
14,59,2,30,1,821.59,480.15,1600.5,288.09,0,0
14,60,2,25,1,970.97,1269.73,2571.47,320.1,0,0
14,61,0,7,0,960.3,1333.75,2603.48,298.76,0,0
14,62,3,6,0,1034.99,650.87,2144.67,448.14,0,0
14,63,1,2,0,885.61,426.8,1675.19,352.11,0,0
14,64,3,18,0,768.24,448.14,1515.14,288.09,0,0
14,65,1,6,0,960.3,405.46,1632.51,256.08,0,0
14,66,2,19,0,544.17,522.83,1397.77,320.1,0,0
14,67,2,7,0,832.26,373.45,1429.78,213.4,0,0
14,68,0,40,1,992.31,501.49,1728.54,224.07,0,0
14,69,0,10,0,842.93,490.82,1600.5,256.08,0,0
14,70,0,19,0,1002.98,416.13,1717.87,288.09,0,0
14,71,2,20,0,544.17,437.47,1301.74,309.43,0,0
14,72,2,40,1,661.54,1803.23,2720.85,245.41,0,0
14,73,1,36,1,1067,522.83,1813.9,213.4,0,0
14,74,1,21,1,682.88,501.49,1557.82,362.78,0,0
14,75,2,17,0,629.53,490.82,1387.1,256.08,0,0
14,76,0,28,1,1013.65,512.16,1824.57,288.09,0,0
14,77,0,37,1,853.6,373.45,1536.48,298.76,0,0
14,78,2,10,0,949.63,426.8,1653.85,266.75,0,1
14,79,3,4,0,661.54,416.13,1472.46,384.12,0,0
14,80,1,13,0,874.94,554.84,1739.21,298.76,0,0
14,81,0,14,0,576.18,448.14,1312.41,277.42,0,0
14,82,0,31,1,693.55,672.21,1696.53,320.1,0,0
14,83,0,21,1,725.56,586.85,1664.52,341.44,0,0
14,84,2,22,1,917.62,544.17,2123.33,650.87,0,0
