Subject	TrialNo	Ttype	CookRaw	FarSrc	Pic	Response	RT
1	1	Grid1	C	L	100	1	4009
1	2	Grid1	C	L	80	1	1503
1	3	Grid1	C	L	170	0	1162
1	4	Grid1	C	L	70	1	1302
1	5	Grid1	C	L	160	0	1215
1	6	Grid1	C	L	220	0	1543
1	7	Grid1	C	L	130	1	1967
1	8	Grid1	C	L	120	1	1343
1	9	Grid1	C	L	240	0	1008
1	10	Grid1	C	L	230	0	1039
1	11	Grid1	C	L	160	1	2543
1	12	Grid1	C	L	120	1	1036
1	13	Grid1	C	L	130	1	1002
1	14	Grid1	C	L	150	0	3146
1	15	Grid1	C	L	190	0	1667
1	16	Grid1	C	L	60	1	1065
1	17	Grid1	C	L	100	1	1389
1	18	Grid1	C	L	210	0	887
1	19	Grid1	C	L	90	1	1211
1	20	Grid1	C	L	210	0	766
1	21	Grid1	C	L	200	0	668
1	22	Grid1	C	L	60	1	849
1	23	Grid1	C	L	140	1	2830
1	24	Grid1	C	L	180	0	1305
1	25	Grid1	C	L	140	1	1216
1	26	Grid1	C	L	180	0	658
1	27	Grid1	C	L	70	1	629
1	28	Grid1	C	L	240	0	547
1	29	Grid1	C	L	90	1	800
1	30	Grid1	C	L	190	0	527
1	31	Grid1	C	L	220	0	631
1	32	Grid1	C	L	170	0	1524
1	33	Grid1	C	L	150	1	1957
1	34	Grid1	C	L	110	1	657
1	35	Grid1	C	L	200	0	677
1	36	Grid1	C	L	110	1	1164
1	37	Grid1	C	L	80	1	884
1	38	Grid1	C	L	230	0	724
2	1	Grid1	C	R	180	1	6237
2	2	Grid1	C	R	230	0	1039
2	3	Grid1	C	R	190	1	4563
2	4	Grid1	C	R	90	1	1528
2	5	Grid1	C	R	60	1	951
2	6	Grid1	C	R	80	1	683
2	7	Grid1	C	R	240	0	555
2	8	Grid1	C	R	200	0	1125
2	9	Grid1	C	R	130	1	1036
2	10	Grid1	C	R	90	1	746
2	11	Grid1	C	R	120	1	518
2	12	Grid1	C	R	240	0	739
2	13	Grid1	C	R	70	1	1736
2	14	Grid1	C	R	70	1	420
2	15	Grid1	C	R	140	1	2244
2	16	Grid1	C	R	170	0	1860
2	17	Grid1	C	R	200	0	560
2	18	Grid1	C	R	210	0	454
2	19	Grid1	C	R	120	1	771
2	20	Grid1	C	R	100	1	475
2	21	Grid1	C	R	160	0	5232
2	22	Grid1	C	R	190	0	627
2	23	Grid1	C	R	210	0	514
2	24	Grid1	C	R	140	1	891
2	25	Grid1	C	R	180	0	1656
2	26	Grid1	C	R	100	1	1236
2	27	Grid1	C	R	230	0	492
2	28	Grid1	C	R	130	1	1042
2	29	Grid1	C	R	220	0	723
2	30	Grid1	C	R	110	1	1513
2	31	Grid1	C	R	160	0	958
2	32	Grid1	C	R	150	1	1938
2	33	Grid1	C	R	110	1	622
2	34	Grid1	C	R	220	0	652
2	35	Grid1	C	R	170	1	2932
2	36	Grid1	C	R	80	1	578
2	37	Grid1	C	R	150	1	744
2	38	Grid1	C	R	60	1	598
3	1	Grid1	R	L	140	1	788
3	2	Grid1	R	L	230	1	1000
3	3	Grid1	R	L	100	0	694
3	4	Grid1	R	L	210	1	634
3	5	Grid1	R	L	220	1	458
3	6	Grid1	R	L	180	0	523
3	7	Grid1	R	L	190	1	725
3	8	Grid1	R	L	180	1	412
3	9	Grid1	R	L	70	0	417
3	10	Grid1	R	L	240	1	632
3	11	Grid1	R	L	160	1	1105
3	12	Grid1	R	L	130	1	657
3	13	Grid1	R	L	60	0	709
3	14	Grid1	R	L	190	1	611
3	15	Grid1	R	L	230	1	666
3	16	Grid1	R	L	70	0	593
3	17	Grid1	R	L	90	0	403
3	18	Grid1	R	L	200	1	476
3	19	Grid1	R	L	100	0	620
3	20	Grid1	R	L	150	0	518
3	21	Grid1	R	L	160	0	397
3	22	Grid1	R	L	80	1	573
3	23	Grid1	R	L	60	0	397
3	24	Grid1	R	L	110	0	371
3	25	Grid1	R	L	240	1	545
3	26	Grid1	R	L	90	0	711
3	27	Grid1	R	L	80	0	433
3	28	Grid1	R	L	120	0	414
3	29	Grid1	R	L	120	0	437
3	30	Grid1	R	L	200	1	517
3	31	Grid1	R	L	170	1	446
3	32	Grid1	R	L	140	1	452
3	33	Grid1	R	L	110	0	682
3	34	Grid1	R	L	220	1	570
3	35	Grid1	R	L	150	0	981
3	36	Grid1	R	L	170	0	1198
3	37	Grid1	R	L	130	0	407
3	38	Grid1	R	L	210	1	659
4	1	Grid1	R	R	110	1	2044
4	2	Grid1	R	R	120	1	1271
4	3	Grid1	R	R	180	0	1125
4	4	Grid1	R	R	150	1	1401
4	5	Grid1	R	R	80	1	1552
4	6	Grid1	R	R	130	1	987
4	7	Grid1	R	R	220	0	759
4	8	Grid1	R	R	180	0	1000
4	9	Grid1	R	R	210	0	617
4	10	Grid1	R	R	100	1	693
4	11	Grid1	R	R	170	0	653
4	12	Grid1	R	R	160	0	667
4	13	Grid1	R	R	220	0	1236
4	14	Grid1	R	R	230	0	1012
4	15	Grid1	R	R	160	1	750
4	16	Grid1	R	R	190	0	1149
4	17	Grid1	R	R	200	0	697
4	18	Grid1	R	R	240	0	1194
4	19	Grid1	R	R	170	1	1325
4	20	Grid1	R	R	240	0	816
4	21	Grid1	R	R	110	1	818
4	22	Grid1	R	R	100	1	774
4	23	Grid1	R	R	90	1	528
4	24	Grid1	R	R	90	1	733
4	25	Grid1	R	R	140	1	713
4	26	Grid1	R	R	210	0	649
4	27	Grid1	R	R	60	1	479
4	28	Grid1	R	R	70	1	366
4	29	Grid1	R	R	80	1	352
4	30	Grid1	R	R	120	1	306
4	31	Grid1	R	R	200	0	583
4	32	Grid1	R	R	140	1	701
4	33	Grid1	R	R	190	0	1305
4	34	Grid1	R	R	60	1	478
4	35	Grid1	R	R	130	0	732
4	36	Grid1	R	R	70	1	601
4	37	Grid1	R	R	230	0	638
4	38	Grid1	R	R	150	1	1041
5	1	Grid1	C	L	200	0	1388
5	2	Grid1	C	L	120	1	4151
5	3	Grid1	C	L	220	0	911
5	4	Grid1	C	L	230	0	1038
5	5	Grid1	C	L	70	1	756
5	6	Grid1	C	L	210	0	956
5	7	Grid1	C	L	100	1	1023
5	8	Grid1	C	L	240	0	708
5	9	Grid1	C	L	160	0	654
5	10	Grid1	C	L	90	1	1240
5	11	Grid1	C	L	140	1	3245
5	12	Grid1	C	L	180	0	614
5	13	Grid1	C	L	80	1	1030
5	14	Grid1	C	L	60	1	711
5	15	Grid1	C	L	170	0	646
5	16	Grid1	C	L	130	1	2005
5	17	Grid1	C	L	210	0	551
5	18	Grid1	C	L	110	1	807
5	19	Grid1	C	L	150	0	544
5	20	Grid1	C	L	200	0	664
5	21	Grid1	C	L	180	0	459
5	22	Grid1	C	L	220	0	510
5	23	Grid1	C	L	100	1	713
5	24	Grid1	C	L	120	1	512
5	25	Grid1	C	L	160	1	686
5	26	Grid1	C	L	130	1	477
5	27	Grid1	C	L	70	1	456
5	28	Grid1	C	L	230	0	516
5	29	Grid1	C	L	140	0	650
5	30	Grid1	C	L	150	1	2286
5	31	Grid1	C	L	190	0	538
5	32	Grid1	C	L	90	1	643
5	33	Grid1	C	L	190	0	1190
5	34	Grid1	C	L	170	0	465
5	35	Grid1	C	L	110	1	565
5	36	Grid1	C	L	240	0	609
5	37	Grid1	C	L	60	1	562
5	38	Grid1	C	L	80	1	574
6	1	Grid1	C	R	220	0	1422
6	2	Grid1	C	R	60	1	644
6	3	Grid1	C	R	240	0	455
6	4	Grid1	C	R	70	1	397
6	5	Grid1	C	R	170	0	307
6	6	Grid1	C	R	210	0	2235
6	7	Grid1	C	R	70	1	482
6	8	Grid1	C	R	140	1	1128
6	9	Grid1	C	R	130	1	477
6	10	Grid1	C	R	160	1	845
6	11	Grid1	C	R	60	1	664
6	12	Grid1	C	R	170	1	546
6	13	Grid1	C	R	90	1	418
6	14	Grid1	C	R	220	0	678
6	15	Grid1	C	R	80	1	376
6	16	Grid1	C	R	150	1	1162
6	17	Grid1	C	R	120	1	451
6	18	Grid1	C	R	80	1	511
6	19	Grid1	C	R	160	1	1130
6	20	Grid1	C	R	230	0	445
6	21	Grid1	C	R	130	1	904
6	22	Grid1	C	R	240	0	569
6	23	Grid1	C	R	210	0	2250
6	24	Grid1	C	R	190	0	489
6	25	Grid1	C	R	100	1	439
6	26	Grid1	C	R	230	0	699
6	27	Grid1	C	R	110	1	481
6	28	Grid1	C	R	140	1	576
6	29	Grid1	C	R	110	1	408
6	30	Grid1	C	R	120	1	418
6	31	Grid1	C	R	200	0	580
6	32	Grid1	C	R	180	0	441
6	33	Grid1	C	R	150	1	399
6	34	Grid1	C	R	90	1	417
6	35	Grid1	C	R	200	0	697
6	36	Grid1	C	R	190	0	632
6	37	Grid1	C	R	180	0	565
6	38	Grid1	C	R	100	1	534
7	1	Grid1	R	L	180	1	2226
7	2	Grid1	R	L	120	0	1207
7	3	Grid1	R	L	230	1	1772
7	4	Grid1	R	L	200	1	2624
7	5	Grid1	R	L	70	0	742
7	6	Grid1	R	L	130	0	828
7	7	Grid1	R	L	160	1	3447
7	8	Grid1	R	L	120	0	1217
7	9	Grid1	R	L	150	1	3132
7	10	Grid1	R	L	200	1	979
7	11	Grid1	R	L	90	0	712
7	12	Grid1	R	L	90	0	514
7	13	Grid1	R	L	100	0	476
7	14	Grid1	R	L	140	1	913
7	15	Grid1	R	L	160	1	781
7	16	Grid1	R	L	180	1	1573
7	17	Grid1	R	L	80	0	510
7	18	Grid1	R	L	60	0	407
7	19	Grid1	R	L	60	0	449
7	20	Grid1	R	L	150	1	469
7	21	Grid1	R	L	210	1	488
7	22	Grid1	R	L	170	1	1166
7	23	Grid1	R	L	220	1	764
7	24	Grid1	R	L	80	0	596
7	25	Grid1	R	L	240	1	539
7	26	Grid1	R	L	110	0	471
7	27	Grid1	R	L	140	1	620
7	28	Grid1	R	L	130	0	940
7	29	Grid1	R	L	230	1	554
7	30	Grid1	R	L	190	1	927
7	31	Grid1	R	L	240	1	556
7	32	Grid1	R	L	110	0	682
7	33	Grid1	R	L	100	0	930
7	34	Grid1	R	L	190	1	727
7	35	Grid1	R	L	210	1	676
7	36	Grid1	R	L	170	1	1576
7	37	Grid1	R	L	220	1	787
7	38	Grid1	R	L	70	0	1230
8	1	Grid1	R	R	150	0	2210
8	2	Grid1	R	R	110	0	1128
8	3	Grid1	R	R	160	0	1798
8	4	Grid1	R	R	240	1	826
8	5	Grid1	R	R	60	0	655
8	6	Grid1	R	R	220	1	682
8	7	Grid1	R	R	180	0	1946
8	8	Grid1	R	R	100	0	923
8	9	Grid1	R	R	210	1	702
8	10	Grid1	R	R	90	0	574
8	11	Grid1	R	R	210	1	660
8	12	Grid1	R	R	220	1	680
8	13	Grid1	R	R	190	1	873
8	14	Grid1	R	R	140	0	1105
8	15	Grid1	R	R	90	0	584
8	16	Grid1	R	R	240	1	826
8	17	Grid1	R	R	100	0	468
8	18	Grid1	R	R	140	0	679
8	19	Grid1	R	R	80	0	536
8	20	Grid1	R	R	120	0	852
8	21	Grid1	R	R	180	1	1064
8	22	Grid1	R	R	120	0	1874
8	23	Grid1	R	R	170	1	1098
8	24	Grid1	R	R	80	0	672
8	25	Grid1	R	R	190	1	1184
8	26	Grid1	R	R	60	0	541
8	27	Grid1	R	R	200	1	653
8	28	Grid1	R	R	70	0	575
8	29	Grid1	R	R	160	1	597
8	30	Grid1	R	R	150	1	615
8	31	Grid1	R	R	70	0	477
8	32	Grid1	R	R	230	1	533
8	33	Grid1	R	R	130	0	656
8	34	Grid1	R	R	230	1	749
8	35	Grid1	R	R	110	0	430
8	36	Grid1	R	R	200	1	431
8	37	Grid1	R	R	170	0	2244
8	38	Grid1	R	R	130	0	674
9	1	Grid1	C	L	90	1	2341
9	2	Grid1	C	L	80	1	664
9	3	Grid1	C	L	100	1	282
9	4	Grid1	C	L	130	0	415
9	5	Grid1	C	L	200	0	937
9	6	Grid1	C	L	190	0	434
9	7	Grid1	C	L	140	0	1245
9	8	Grid1	C	L	210	0	2231
9	9	Grid1	C	L	180	0	747
9	10	Grid1	C	L	90	1	685
9	11	Grid1	C	L	230	0	487
9	12	Grid1	C	L	120	1	702
9	13	Grid1	C	L	140	1	566
9	14	Grid1	C	L	160	1	420
9	15	Grid1	C	L	120	1	3873
9	16	Grid1	C	L	60	1	408
9	17	Grid1	C	L	170	0	1370
9	18	Grid1	C	L	230	0	453
9	19	Grid1	C	L	130	0	491
9	20	Grid1	C	L	170	0	462
9	21	Grid1	C	L	110	1	881
9	22	Grid1	C	L	150	1	1292
9	23	Grid1	C	L	160	0	621
9	24	Grid1	C	L	240	0	513
9	25	Grid1	C	L	110	1	1018
9	26	Grid1	C	L	180	0	609
9	27	Grid1	C	L	240	0	581
9	28	Grid1	C	L	100	1	915
9	29	Grid1	C	L	80	1	604
9	30	Grid1	C	L	150	0	734
9	31	Grid1	C	L	70	1	777
9	32	Grid1	C	L	210	0	490
9	33	Grid1	C	L	190	0	631
9	34	Grid1	C	L	60	1	449
9	35	Grid1	C	L	70	1	578
9	36	Grid1	C	L	220	0	464
9	37	Grid1	C	L	220	0	955
9	38	Grid1	C	L	200	0	317
12	1	Grid1	R	R	210	0	1946
12	2	Grid1	R	R	120	0	1196
12	3	Grid1	R	R	130	0	727
12	4	Grid1	R	R	70	0	1988
12	5	Grid1	R	R	210	1	711
12	6	Grid1	R	R	100	0	1200
12	7	Grid1	R	R	200	0	1358
12	8	Grid1	R	R	100	0	656
12	9	Grid1	R	R	230	1	709
12	10	Grid1	R	R	160	0	1447
12	11	Grid1	R	R	240	1	634
12	12	Grid1	R	R	80	0	477
12	13	Grid1	R	R	160	0	1177
12	14	Grid1	R	R	180	0	575
12	15	Grid1	R	R	140	0	985
12	16	Grid1	R	R	170	1	628
12	17	Grid1	R	R	240	1	659
12	18	Grid1	R	R	150	0	915
12	19	Grid1	R	R	90	0	665
12	20	Grid1	R	R	80	0	557
12	21	Grid1	R	R	110	0	547
12	22	Grid1	R	R	120	0	463
12	23	Grid1	R	R	190	1	567
12	24	Grid1	R	R	150	0	601
12	25	Grid1	R	R	220	1	555
12	26	Grid1	R	R	60	0	500
12	27	Grid1	R	R	60	0	837
12	28	Grid1	R	R	180	0	888
12	29	Grid1	R	R	190	0	591
12	30	Grid1	R	R	200	0	523
12	31	Grid1	R	R	140	0	539
12	32	Grid1	R	R	70	0	625
12	33	Grid1	R	R	90	0	616
12	34	Grid1	R	R	230	1	581
12	35	Grid1	R	R	130	0	982
12	36	Grid1	R	R	170	1	676
12	37	Grid1	R	R	110	0	512
12	38	Grid1	R	R	220	1	597
13	1	Grid1	C	L	160	0	903
13	2	Grid1	C	L	70	1	678
13	3	Grid1	C	L	80	1	772
13	4	Grid1	C	L	110	1	569
13	5	Grid1	C	L	170	0	536
13	6	Grid1	C	L	120	1	2347
13	7	Grid1	C	L	120	1	567
13	8	Grid1	C	L	130	0	1956
13	9	Grid1	C	L	210	0	1022
13	10	Grid1	C	L	90	1	634
13	11	Grid1	C	L	60	1	920
13	12	Grid1	C	L	170	0	572
13	13	Grid1	C	L	220	0	1576
13	14	Grid1	C	L	200	0	1565
13	15	Grid1	C	L	210	0	913
13	16	Grid1	C	L	180	0	1060
13	17	Grid1	C	L	200	0	807
13	18	Grid1	C	L	100	1	609
13	19	Grid1	C	L	130	1	804
13	20	Grid1	C	L	230	0	782
13	21	Grid1	C	L	230	0	541
13	22	Grid1	C	L	140	0	1379
13	23	Grid1	C	L	80	1	810
13	24	Grid1	C	L	160	0	685
13	25	Grid1	C	L	220	0	665
13	26	Grid1	C	L	70	1	686
13	27	Grid1	C	L	100	1	923
13	28	Grid1	C	L	150	0	818
13	29	Grid1	C	L	240	0	762
13	30	Grid1	C	L	180	0	521
13	31	Grid1	C	L	110	1	690
13	32	Grid1	C	L	90	1	515
13	33	Grid1	C	L	190	0	609
13	34	Grid1	C	L	150	0	556
13	35	Grid1	C	L	140	0	861
13	36	Grid1	C	L	60	1	1070
13	37	Grid1	C	L	190	0	518
13	38	Grid1	C	L	240	0	866
14	1	Grid1	C	R	120	1	1193
14	2	Grid1	C	R	120	1	805
14	3	Grid1	C	R	230	0	870
14	4	Grid1	C	R	200	0	4818
14	5	Grid1	C	R	150	1	906
14	6	Grid1	C	R	130	1	649
14	7	Grid1	C	R	160	1	639
14	8	Grid1	C	R	60	1	1725
14	9	Grid1	C	R	180	1	1383
14	10	Grid1	C	R	100	1	929
14	11	Grid1	C	R	220	0	949
14	12	Grid1	C	R	210	0	987
14	13	Grid1	C	R	110	1	867
14	14	Grid1	C	R	70	1	644
14	15	Grid1	C	R	190	0	607
14	16	Grid1	C	R	80	1	666
14	17	Grid1	C	R	230	0	563
14	18	Grid1	C	R	200	0	674
14	19	Grid1	C	R	150	1	1747
14	20	Grid1	C	R	140	1	1250
14	21	Grid1	C	R	170	1	2005
14	22	Grid1	C	R	100	1	942
14	23	Grid1	C	R	170	1	987
14	24	Grid1	C	R	130	1	495
14	25	Grid1	C	R	190	1	6194
14	26	Grid1	C	R	90	1	580
14	27	Grid1	C	R	140	1	510
14	28	Grid1	C	R	160	1	386
14	29	Grid1	C	R	220	0	674
14	30	Grid1	C	R	80	1	542
14	31	Grid1	C	R	60	1	489
14	32	Grid1	C	R	240	0	566
14	33	Grid1	C	R	210	0	1408
14	34	Grid1	C	R	90	1	541
14	35	Grid1	C	R	240	0	632
14	36	Grid1	C	R	70	1	733
14	37	Grid1	C	R	180	1	1031
14	38	Grid1	C	R	110	1	550
15	1	Grid1	R	L	90	0	3826
15	2	Grid1	R	L	160	1	1005
15	3	Grid1	R	L	80	0	874
15	4	Grid1	R	L	240	1	1842
15	5	Grid1	R	L	150	0	781
15	6	Grid1	R	L	230	1	865
15	7	Grid1	R	L	240	1	622
15	8	Grid1	R	L	180	1	3009
15	9	Grid1	R	L	120	0	838
15	10	Grid1	R	L	170	1	716
15	11	Grid1	R	L	100	0	723
15	12	Grid1	R	L	130	0	751
15	13	Grid1	R	L	120	0	501
15	14	Grid1	R	L	220	1	608
15	15	Grid1	R	L	180	0	1032
15	16	Grid1	R	L	70	0	561
15	17	Grid1	R	L	170	1	1009
15	18	Grid1	R	L	110	0	781
15	19	Grid1	R	L	220	1	617
15	20	Grid1	R	L	80	0	644
15	21	Grid1	R	L	70	1	420
15	22	Grid1	R	L	150	1	1207
15	23	Grid1	R	L	210	1	722
15	24	Grid1	R	L	230	1	545
15	25	Grid1	R	L	110	0	543
15	26	Grid1	R	L	200	1	487
15	27	Grid1	R	L	190	1	463
15	28	Grid1	R	L	60	0	627
15	29	Grid1	R	L	90	0	578
15	30	Grid1	R	L	160	1	676
15	31	Grid1	R	L	100	0	540
15	32	Grid1	R	L	210	1	406
15	33	Grid1	R	L	190	1	405
15	34	Grid1	R	L	200	1	311
15	35	Grid1	R	L	130	0	677
15	36	Grid1	R	L	140	0	794
15	37	Grid1	R	L	140	0	534
15	38	Grid1	R	L	60	0	1520
16	1	Grid1	R	R	80	0	2464
16	2	Grid1	R	R	170	1	1907
16	3	Grid1	R	R	180	1	1459
16	4	Grid1	R	R	100	0	749
16	5	Grid1	R	R	220	1	669
16	6	Grid1	R	R	150	0	565
16	7	Grid1	R	R	130	0	1209
16	8	Grid1	R	R	140	0	587
16	9	Grid1	R	R	170	1	767
16	10	Grid1	R	R	240	1	670
16	11	Grid1	R	R	60	1	1415
16	12	Grid1	R	R	100	0	870
16	13	Grid1	R	R	110	0	392
16	14	Grid1	R	R	150	0	793
16	15	Grid1	R	R	70	1	428
16	16	Grid1	R	R	200	1	602
16	17	Grid1	R	R	120	0	1073
16	18	Grid1	R	R	80	1	566
16	19	Grid1	R	R	130	1	2011
16	20	Grid1	R	R	190	1	694
16	21	Grid1	R	R	230	1	761
16	22	Grid1	R	R	110	0	575
16	23	Grid1	R	R	160	0	1337
16	24	Grid1	R	R	210	1	842
16	25	Grid1	R	R	180	1	324
16	26	Grid1	R	R	230	0	193
16	27	Grid1	R	R	70	1	506
16	28	Grid1	R	R	140	1	287
16	29	Grid1	R	R	160	0	349
16	30	Grid1	R	R	240	1	298
16	31	Grid1	R	R	120	0	302
16	32	Grid1	R	R	60	1	200
16	33	Grid1	R	R	210	0	240
16	34	Grid1	R	R	220	1	154
16	35	Grid1	R	R	90	0	11
16	36	Grid1	R	R	90	0	314
16	37	Grid1	R	R	200	0	229
16	38	Grid1	R	R	190	0	63
17	1	Grid1	C	L	180	0	4275
17	2	Grid1	C	L	230	0	1982
17	3	Grid1	C	L	170	0	1226
17	4	Grid1	C	L	90	1	1289
17	5	Grid1	C	L	120	1	1043
17	6	Grid1	C	L	110	1	1105
17	7	Grid1	C	L	110	1	979
17	8	Grid1	C	L	60	1	1061
17	9	Grid1	C	L	130	1	1508
17	10	Grid1	C	L	70	1	2318
17	11	Grid1	C	L	220	0	1100
17	12	Grid1	C	L	100	1	1187
17	13	Grid1	C	L	240	0	1048
17	14	Grid1	C	L	220	0	919
17	15	Grid1	C	L	120	1	1076
17	16	Grid1	C	L	150	0	1163
17	17	Grid1	C	L	60	1	952
17	18	Grid1	C	L	190	0	896
17	19	Grid1	C	L	150	0	1704
17	20	Grid1	C	L	190	0	839
17	21	Grid1	C	L	140	0	2900
17	22	Grid1	C	L	210	0	706
17	23	Grid1	C	L	180	0	732
17	24	Grid1	C	L	210	0	700
17	25	Grid1	C	L	200	0	794
17	26	Grid1	C	L	140	1	2178
17	27	Grid1	C	L	130	1	751
17	28	Grid1	C	L	240	0	609
17	29	Grid1	C	L	90	1	919
17	30	Grid1	C	L	80	1	558
17	31	Grid1	C	L	170	0	1135
17	32	Grid1	C	L	160	0	482
17	33	Grid1	C	L	100	1	3879
17	34	Grid1	C	L	70	1	1293
17	35	Grid1	C	L	160	0	719
17	36	Grid1	C	L	230	0	564
17	37	Grid1	C	L	200	0	580
17	38	Grid1	C	L	80	0	1983
18	1	Grid1	C	R	110	1	1093
18	2	Grid1	C	R	200	0	5401
18	3	Grid1	C	R	180	1	1218
18	4	Grid1	C	R	210	0	2173
18	5	Grid1	C	R	60	1	2175
18	6	Grid1	C	R	80	1	928
18	7	Grid1	C	R	90	1	667
18	8	Grid1	C	R	200	0	1177
18	9	Grid1	C	R	230	0	1070
18	10	Grid1	C	R	190	1	3471
18	11	Grid1	C	R	190	1	1481
18	12	Grid1	C	R	70	1	779
18	13	Grid1	C	R	120	1	595
18	14	Grid1	C	R	100	1	650
18	15	Grid1	C	R	110	1	739
18	16	Grid1	C	R	60	1	779
18	17	Grid1	C	R	240	0	893
18	18	Grid1	C	R	140	1	1446
18	19	Grid1	C	R	230	0	1599
18	20	Grid1	C	R	170	0	1979
18	21	Grid1	C	R	130	1	1993
18	22	Grid1	C	R	160	0	1500
18	23	Grid1	C	R	120	1	4185
18	24	Grid1	C	R	150	1	9035
18	25	Grid1	C	R	170	1	829
18	26	Grid1	C	R	220	0	938
18	27	Grid1	C	R	80	1	671
18	28	Grid1	C	R	100	1	861
18	29	Grid1	C	R	210	0	1341
18	30	Grid1	C	R	130	1	721
18	31	Grid1	C	R	240	0	1156
18	32	Grid1	C	R	140	1	2218
18	33	Grid1	C	R	160	1	2185
18	34	Grid1	C	R	220	0	1760
18	35	Grid1	C	R	150	1	734
18	36	Grid1	C	R	90	1	1157
18	37	Grid1	C	R	70	1	2948
18	38	Grid1	C	R	180	0	1439
19	1	Grid1	R	L	220	1	827
19	2	Grid1	R	L	180	0	761
19	3	Grid1	R	L	100	0	463
19	4	Grid1	R	L	200	1	613
19	5	Grid1	R	L	140	0	696
19	6	Grid1	R	L	240	1	468
19	7	Grid1	R	L	220	1	397
19	8	Grid1	R	L	230	1	471
19	9	Grid1	R	L	170	1	406
19	10	Grid1	R	L	60	0	666
19	11	Grid1	R	L	140	1	531
19	12	Grid1	R	L	230	1	645
19	13	Grid1	R	L	120	0	500
19	14	Grid1	R	L	200	1	428
19	15	Grid1	R	L	70	0	668
19	16	Grid1	R	L	210	1	488
19	17	Grid1	R	L	210	1	440
19	18	Grid1	R	L	90	1	460
19	19	Grid1	R	L	80	0	650
19	20	Grid1	R	L	80	0	447
19	21	Grid1	R	L	180	1	522
19	22	Grid1	R	L	100	0	395
19	23	Grid1	R	L	190	1	326
19	24	Grid1	R	L	170	0	405
19	25	Grid1	R	L	160	1	354
19	26	Grid1	R	L	90	1	320
19	27	Grid1	R	L	120	0	671
19	28	Grid1	R	L	150	1	476
19	29	Grid1	R	L	70	0	312
19	30	Grid1	R	L	240	1	408
19	31	Grid1	R	L	130	0	433
19	32	Grid1	R	L	190	1	356
19	33	Grid1	R	L	160	0	423
19	34	Grid1	R	L	60	1	376
19	35	Grid1	R	L	130	1	573
19	36	Grid1	R	L	150	1	496
19	37	Grid1	R	L	110	1	469
19	38	Grid1	R	L	110	0	387
20	1	Grid1	R	R	70	0	2270
20	2	Grid1	R	R	120	0	1036
20	3	Grid1	R	R	220	1	673
20	4	Grid1	R	R	180	0	865
20	5	Grid1	R	R	200	1	850
20	6	Grid1	R	R	230	1	576
20	7	Grid1	R	R	210	1	552
20	8	Grid1	R	R	120	0	623
20	9	Grid1	R	R	190	0	1135
20	10	Grid1	R	R	170	0	736
20	11	Grid1	R	R	110	0	838
20	12	Grid1	R	R	210	1	568
20	13	Grid1	R	R	80	0	560
20	14	Grid1	R	R	90	0	504
20	15	Grid1	R	R	170	0	975
20	16	Grid1	R	R	100	0	1230
20	17	Grid1	R	R	150	1	527
20	18	Grid1	R	R	230	1	642
20	19	Grid1	R	R	140	1	704
20	20	Grid1	R	R	130	0	1179
20	21	Grid1	R	R	180	1	1439
20	22	Grid1	R	R	190	1	648
20	23	Grid1	R	R	240	1	551
20	24	Grid1	R	R	60	0	506
20	25	Grid1	R	R	130	0	551
20	26	Grid1	R	R	240	1	530
20	27	Grid1	R	R	110	0	2031
20	28	Grid1	R	R	100	0	796
20	29	Grid1	R	R	140	0	967
20	30	Grid1	R	R	70	0	640
20	31	Grid1	R	R	160	1	996
20	32	Grid1	R	R	200	1	606
20	33	Grid1	R	R	90	0	584
20	34	Grid1	R	R	150	0	583
20	35	Grid1	R	R	220	1	728
20	36	Grid1	R	R	80	0	790
20	37	Grid1	R	R	160	0	1075
20	38	Grid1	R	R	60	0	513
21	1	Grid1	C	L	240	0	2988
21	2	Grid1	C	L	150	0	1408
21	3	Grid1	C	L	240	1	571
21	4	Grid1	C	L	220	1	547
21	5	Grid1	C	L	180	0	488
21	6	Grid1	C	L	100	1	707
21	7	Grid1	C	L	140	1	367
21	8	Grid1	C	L	220	0	410
21	9	Grid1	C	L	70	1	426
21	10	Grid1	C	L	190	0	274
21	11	Grid1	C	L	200	1	280
21	12	Grid1	C	L	170	0	367
21	13	Grid1	C	L	130	0	282
21	14	Grid1	C	L	230	1	288
21	15	Grid1	C	L	60	0	277
21	16	Grid1	C	L	140	1	654
21	17	Grid1	C	L	170	1	338
21	18	Grid1	C	L	150	0	340
21	19	Grid1	C	L	90	0	247
21	20	Grid1	C	L	160	1	190
21	21	Grid1	C	L	110	1	257
21	22	Grid1	C	L	110	0	222
21	23	Grid1	C	L	130	0	448
21	24	Grid1	C	L	80	1	797
21	25	Grid1	C	L	90	0	567
21	26	Grid1	C	L	80	0	592
21	27	Grid1	C	L	100	1	1193
21	28	Grid1	C	L	210	0	1385
21	29	Grid1	C	L	210	0	2160
21	30	Grid1	C	L	180	1	1344
21	31	Grid1	C	L	120	1	1216
21	32	Grid1	C	L	70	1	481
21	33	Grid1	C	L	120	0	648
21	34	Grid1	C	L	230	1	363
21	35	Grid1	C	L	160	0	239
21	36	Grid1	C	L	200	0	301
21	37	Grid1	C	L	190	1	526
21	38	Grid1	C	L	60	1	420
22	1	Grid1	C	R	200	1	2569
22	2	Grid1	C	R	90	1	1609
22	3	Grid1	C	R	120	1	671
22	4	Grid1	C	R	160	1	1847
22	5	Grid1	C	R	210	0	1021
22	6	Grid1	C	R	80	1	1102
22	7	Grid1	C	R	140	1	817
22	8	Grid1	C	R	210	0	518
22	9	Grid1	C	R	60	1	602
22	10	Grid1	C	R	240	0	696
22	11	Grid1	C	R	190	0	1379
22	12	Grid1	C	R	80	1	532
22	13	Grid1	C	R	190	0	735
22	14	Grid1	C	R	150	1	790
22	15	Grid1	C	R	180	1	2701
22	16	Grid1	C	R	230	0	812
22	17	Grid1	C	R	170	1	950
22	18	Grid1	C	R	60	1	632
22	19	Grid1	C	R	180	1	1438
22	20	Grid1	C	R	130	1	581
22	21	Grid1	C	R	70	1	461
22	22	Grid1	C	R	110	1	501
22	23	Grid1	C	R	110	1	497
22	24	Grid1	C	R	70	1	589
22	25	Grid1	C	R	100	1	486
22	26	Grid1	C	R	240	0	625
22	27	Grid1	C	R	220	0	706
22	28	Grid1	C	R	170	0	1526
22	29	Grid1	C	R	120	1	1432
22	30	Grid1	C	R	100	1	1074
22	31	Grid1	C	R	140	1	1199
22	32	Grid1	C	R	220	0	559
22	33	Grid1	C	R	200	0	1218
22	34	Grid1	C	R	150	1	1344
22	35	Grid1	C	R	90	1	916
22	36	Grid1	C	R	130	1	1467
22	37	Grid1	C	R	160	1	3049
22	38	Grid1	C	R	230	0	474
23	1	Grid1	R	L	160	1	2180
23	2	Grid1	R	L	210	1	1001
23	3	Grid1	R	L	240	1	579
23	4	Grid1	R	L	80	0	623
23	5	Grid1	R	L	60	0	408
23	6	Grid1	R	L	110	0	449
23	7	Grid1	R	L	130	0	422
23	8	Grid1	R	L	140	0	331
23	9	Grid1	R	L	170	0	458
23	10	Grid1	R	L	100	0	658
23	11	Grid1	R	L	80	0	402
23	12	Grid1	R	L	140	1	692
23	13	Grid1	R	L	130	1	484
23	14	Grid1	R	L	150	1	504
23	15	Grid1	R	L	210	1	889
23	16	Grid1	R	L	220	1	329
23	17	Grid1	R	L	110	0	706
23	18	Grid1	R	L	240	1	619
23	19	Grid1	R	L	150	1	431
23	20	Grid1	R	L	180	1	371
23	21	Grid1	R	L	70	0	573
23	22	Grid1	R	L	120	0	301
23	23	Grid1	R	L	200	1	479
23	24	Grid1	R	L	220	1	440
23	25	Grid1	R	L	230	1	350
23	26	Grid1	R	L	60	0	573
23	27	Grid1	R	L	90	0	376
23	28	Grid1	R	L	170	1	470
23	29	Grid1	R	L	190	1	321
23	30	Grid1	R	L	100	0	466
23	31	Grid1	R	L	90	0	446
23	32	Grid1	R	L	200	1	474
23	33	Grid1	R	L	70	0	425
23	34	Grid1	R	L	120	0	476
23	35	Grid1	R	L	180	1	419
23	36	Grid1	R	L	160	1	403
23	37	Grid1	R	L	190	1	416
23	38	Grid1	R	L	230	1	445
24	1	Grid1	R	R	170	0	2081
24	2	Grid1	R	R	60	0	1754
24	3	Grid1	R	R	100	0	1066
24	4	Grid1	R	R	120	0	1246
24	5	Grid1	R	R	180	1	2944
24	6	Grid1	R	R	200	1	1063
24	7	Grid1	R	R	180	1	1051
24	8	Grid1	R	R	230	1	950
24	9	Grid1	R	R	210	1	965
24	10	Grid1	R	R	120	0	956
24	11	Grid1	R	R	90	0	837
24	12	Grid1	R	R	110	0	965
24	13	Grid1	R	R	150	1	3883
24	14	Grid1	R	R	60	0	1684
24	15	Grid1	R	R	130	1	2245
24	16	Grid1	R	R	150	1	949
24	17	Grid1	R	R	190	1	1057
24	18	Grid1	R	R	140	1	1032
24	19	Grid1	R	R	70	0	738
24	20	Grid1	R	R	160	1	934
24	21	Grid1	R	R	90	0	969
24	22	Grid1	R	R	80	0	900
24	23	Grid1	R	R	160	1	940
24	24	Grid1	R	R	240	1	882
24	25	Grid1	R	R	100	0	784
24	26	Grid1	R	R	220	1	1036
24	27	Grid1	R	R	200	1	784
24	28	Grid1	R	R	240	1	655
24	29	Grid1	R	R	210	1	878
24	30	Grid1	R	R	80	0	634
24	31	Grid1	R	R	110	0	596
24	32	Grid1	R	R	220	1	604
24	33	Grid1	R	R	170	1	2926
24	34	Grid1	R	R	140	1	735
24	35	Grid1	R	R	130	0	1384
24	36	Grid1	R	R	190	1	1247
24	37	Grid1	R	R	70	0	667
24	38	Grid1	R	R	230	1	782
25	1	Grid1	C	L	240	0	1405
25	2	Grid1	C	L	230	0	589
25	3	Grid1	C	L	180	0	855
25	4	Grid1	C	L	220	0	455
25	5	Grid1	C	L	230	0	569
25	6	Grid1	C	L	90	1	726
25	7	Grid1	C	L	170	0	660
25	8	Grid1	C	L	220	0	544
25	9	Grid1	C	L	120	1	1648
25	10	Grid1	C	L	60	1	491
25	11	Grid1	C	L	150	0	631
25	12	Grid1	C	L	160	0	521
25	13	Grid1	C	L	70	1	469
25	14	Grid1	C	L	190	0	489
25	15	Grid1	C	L	130	0	1102
25	16	Grid1	C	L	100	1	631
25	17	Grid1	C	L	80	1	448
25	18	Grid1	C	L	180	0	500
25	19	Grid1	C	L	90	1	481
25	20	Grid1	C	L	150	0	445
25	21	Grid1	C	L	70	1	544
25	22	Grid1	C	L	110	1	839
25	23	Grid1	C	L	170	0	1377
25	24	Grid1	C	L	120	1	658
25	25	Grid1	C	L	160	0	473
25	26	Grid1	C	L	240	0	634
25	27	Grid1	C	L	210	0	440
25	28	Grid1	C	L	140	1	585
25	29	Grid1	C	L	200	0	370
25	30	Grid1	C	L	80	1	997
25	31	Grid1	C	L	190	0	411
25	32	Grid1	C	L	110	1	519
25	33	Grid1	C	L	200	0	486
25	34	Grid1	C	L	100	1	524
25	35	Grid1	C	L	60	1	543
25	36	Grid1	C	L	210	0	501
25	37	Grid1	C	L	130	1	533
25	38	Grid1	C	L	140	1	869
26	1	Grid1	C	R	230	1	900
26	2	Grid1	C	R	110	1	686
26	3	Grid1	C	R	130	1	551
26	4	Grid1	C	R	80	1	682
26	5	Grid1	C	R	220	0	509
26	6	Grid1	C	R	80	1	545
26	7	Grid1	C	R	100	1	577
26	8	Grid1	C	R	90	1	583
26	9	Grid1	C	R	60	1	469
26	10	Grid1	C	R	210	0	574
26	11	Grid1	C	R	200	0	521
26	12	Grid1	C	R	70	1	518
26	13	Grid1	C	R	70	1	451
26	14	Grid1	C	R	190	0	531
26	15	Grid1	C	R	150	1	443
26	16	Grid1	C	R	130	1	435
26	17	Grid1	C	R	100	1	585
26	18	Grid1	C	R	90	1	638
26	19	Grid1	C	R	140	1	546
26	20	Grid1	C	R	140	1	607
26	21	Grid1	C	R	190	0	640
26	22	Grid1	C	R	240	0	623
26	23	Grid1	C	R	170	0	515
26	24	Grid1	C	R	110	1	537
26	25	Grid1	C	R	170	0	611
26	26	Grid1	C	R	160	0	515
26	27	Grid1	C	R	180	0	1264
26	28	Grid1	C	R	180	1	1535
26	29	Grid1	C	R	220	0	627
26	30	Grid1	C	R	210	0	558
26	31	Grid1	C	R	230	0	526
26	32	Grid1	C	R	150	1	646
26	33	Grid1	C	R	120	1	529
26	34	Grid1	C	R	60	1	617
26	35	Grid1	C	R	200	0	706
26	36	Grid1	C	R	120	1	529
26	37	Grid1	C	R	160	0	634
26	38	Grid1	C	R	240	0	774
27	1	Grid1	R	L	110	1	2667
27	2	Grid1	R	L	230	1	1947
27	3	Grid1	R	L	140	1	865
27	4	Grid1	R	L	130	1	865
27	5	Grid1	R	L	140	1	677
27	6	Grid1	R	L	60	0	577
27	7	Grid1	R	L	200	1	602
27	8	Grid1	R	L	170	1	451
27	9	Grid1	R	L	230	1	410
27	10	Grid1	R	L	80	0	535
27	11	Grid1	R	L	120	0	507
27	12	Grid1	R	L	120	0	401
27	13	Grid1	R	L	160	1	501
27	14	Grid1	R	L	210	1	589
27	15	Grid1	R	L	100	0	607
27	16	Grid1	R	L	150	1	542
27	17	Grid1	R	L	70	0	992
27	18	Grid1	R	L	210	1	532
27	19	Grid1	R	L	130	1	1002
27	20	Grid1	R	L	70	0	615
27	21	Grid1	R	L	190	1	501
27	22	Grid1	R	L	190	1	499
27	23	Grid1	R	L	220	1	453
27	24	Grid1	R	L	90	0	512
27	25	Grid1	R	L	150	1	461
27	26	Grid1	R	L	240	1	557
27	27	Grid1	R	L	200	1	457
27	28	Grid1	R	L	90	0	509
27	29	Grid1	R	L	80	0	546
27	30	Grid1	R	L	170	1	449
27	31	Grid1	R	L	110	0	487
27	32	Grid1	R	L	240	1	479
27	33	Grid1	R	L	60	0	455
27	34	Grid1	R	L	180	1	443
27	35	Grid1	R	L	160	1	546
27	36	Grid1	R	L	180	1	476
27	37	Grid1	R	L	100	0	510
27	38	Grid1	R	L	220	1	489
28	1	Grid1	R	R	90	0	1480
28	2	Grid1	R	R	230	1	726
28	3	Grid1	R	R	220	1	1321
28	4	Grid1	R	R	150	0	535
28	5	Grid1	R	R	120	0	663
28	6	Grid1	R	R	80	0	646
28	7	Grid1	R	R	170	0	641
28	8	Grid1	R	R	200	1	3466
28	9	Grid1	R	R	90	0	618
28	10	Grid1	R	R	110	0	568
28	11	Grid1	R	R	80	0	830
28	12	Grid1	R	R	100	0	810
28	13	Grid1	R	R	170	0	1694
28	14	Grid1	R	R	230	1	725
28	15	Grid1	R	R	130	0	1105
28	16	Grid1	R	R	160	0	1206
28	17	Grid1	R	R	160	0	1457
28	18	Grid1	R	R	180	0	888
28	19	Grid1	R	R	210	1	642
28	20	Grid1	R	R	180	1	2763
28	21	Grid1	R	R	220	1	514
28	22	Grid1	R	R	110	0	543
28	23	Grid1	R	R	210	1	523
28	24	Grid1	R	R	130	0	496
28	25	Grid1	R	R	70	0	545
28	26	Grid1	R	R	140	0	522
28	27	Grid1	R	R	190	0	2056
28	28	Grid1	R	R	60	0	602
28	29	Grid1	R	R	70	0	421
28	30	Grid1	R	R	120	0	402
28	31	Grid1	R	R	150	0	445
28	32	Grid1	R	R	190	1	468
28	33	Grid1	R	R	100	0	502
28	34	Grid1	R	R	60	0	385
28	35	Grid1	R	R	240	1	567
28	36	Grid1	R	R	200	1	768
28	37	Grid1	R	R	140	0	525
28	38	Grid1	R	R	240	1	569
29	1	Grid1	C	L	60	1	1917
29	2	Grid1	C	L	210	0	893
29	3	Grid1	C	L	110	0	763
29	4	Grid1	C	L	110	0	367
29	5	Grid1	C	L	230	0	616
29	6	Grid1	C	L	80	1	479
29	7	Grid1	C	L	120	1	816
29	8	Grid1	C	L	160	0	484
29	9	Grid1	C	L	120	0	460
29	10	Grid1	C	L	220	0	502
29	11	Grid1	C	L	240	0	472
29	12	Grid1	C	L	180	0	398
29	13	Grid1	C	L	220	0	395
29	14	Grid1	C	L	130	0	387
29	15	Grid1	C	L	160	0	373
29	16	Grid1	C	L	210	0	331
29	17	Grid1	C	L	130	1	686
29	18	Grid1	C	L	170	0	676
29	19	Grid1	C	L	100	1	480
29	20	Grid1	C	L	150	1	607
29	21	Grid1	C	L	180	0	753
29	22	Grid1	C	L	70	1	461
29	23	Grid1	C	L	200	0	633
29	24	Grid1	C	L	90	1	393
29	25	Grid1	C	L	170	0	386
29	26	Grid1	C	L	140	1	431
29	27	Grid1	C	L	230	0	573
29	28	Grid1	C	L	70	1	546
29	29	Grid1	C	L	200	0	707
29	30	Grid1	C	L	80	1	441
29	31	Grid1	C	L	140	0	377
29	32	Grid1	C	L	150	0	384
29	33	Grid1	C	L	240	0	402
29	34	Grid1	C	L	90	1	393
29	35	Grid1	C	L	190	0	414
29	36	Grid1	C	L	100	1	423
29	37	Grid1	C	L	190	0	416
29	38	Grid1	C	L	60	1	399
30	1	Grid1	C	R	170	1	835
30	2	Grid1	C	R	210	0	615
30	3	Grid1	C	R	220	0	536
30	4	Grid1	C	R	200	0	462
30	5	Grid1	C	R	130	1	473
30	6	Grid1	C	R	120	1	576
30	7	Grid1	C	R	180	0	698
30	8	Grid1	C	R	230	0	556
30	9	Grid1	C	R	120	1	489
30	10	Grid1	C	R	190	0	1006
30	11	Grid1	C	R	90	1	627
30	12	Grid1	C	R	100	1	549
30	13	Grid1	C	R	200	0	467
30	14	Grid1	C	R	70	1	492
30	15	Grid1	C	R	190	0	447
30	16	Grid1	C	R	240	0	515
30	17	Grid1	C	R	110	1	436
30	18	Grid1	C	R	130	1	743
30	19	Grid1	C	R	220	0	477
30	20	Grid1	C	R	150	1	586
30	21	Grid1	C	R	210	0	637
30	22	Grid1	C	R	80	1	502
30	23	Grid1	C	R	150	1	631
30	24	Grid1	C	R	100	1	519
30	25	Grid1	C	R	60	1	425
30	26	Grid1	C	R	140	1	709
30	27	Grid1	C	R	80	1	451
30	28	Grid1	C	R	230	0	463
30	29	Grid1	C	R	160	1	783
30	30	Grid1	C	R	90	1	495
30	31	Grid1	C	R	110	1	385
30	32	Grid1	C	R	240	0	511
30	33	Grid1	C	R	60	1	627
30	34	Grid1	C	R	70	1	450
30	35	Grid1	C	R	170	0	568
30	36	Grid1	C	R	160	0	456
30	37	Grid1	C	R	140	1	786
30	38	Grid1	C	R	180	1	496
32	1	Grid1	R	R	240	1	1579
32	2	Grid1	R	R	140	0	854
32	3	Grid1	R	R	70	0	1168
32	4	Grid1	R	R	120	0	1198
32	5	Grid1	R	R	120	0	831
32	6	Grid1	R	R	190	1	2166
32	7	Grid1	R	R	180	1	695
32	8	Grid1	R	R	220	1	936
32	9	Grid1	R	R	220	1	685
32	10	Grid1	R	R	200	1	1298
32	11	Grid1	R	R	160	0	864
32	12	Grid1	R	R	210	1	1071
32	13	Grid1	R	R	150	0	947
32	14	Grid1	R	R	100	0	668
32	15	Grid1	R	R	190	1	1107
32	16	Grid1	R	R	80	0	594
32	17	Grid1	R	R	230	1	419
32	18	Grid1	R	R	60	0	722
32	19	Grid1	R	R	200	1	511
32	20	Grid1	R	R	100	0	591
32	21	Grid1	R	R	60	0	481
32	22	Grid1	R	R	180	1	414
32	23	Grid1	R	R	230	1	551
32	24	Grid1	R	R	110	0	444
32	25	Grid1	R	R	140	0	1322
32	26	Grid1	R	R	170	1	2393
32	27	Grid1	R	R	170	1	795
32	28	Grid1	R	R	80	0	611
32	29	Grid1	R	R	110	0	823
32	30	Grid1	R	R	240	1	442
32	31	Grid1	R	R	90	0	574
32	32	Grid1	R	R	160	0	450
32	33	Grid1	R	R	130	0	438
32	34	Grid1	R	R	130	0	414
32	35	Grid1	R	R	210	1	643
32	36	Grid1	R	R	90	0	552
32	37	Grid1	R	R	70	0	636
32	38	Grid1	R	R	150	0	461
33	1	Grid1	C	R	80	1	1158
33	2	Grid1	C	R	190	0	836
33	3	Grid1	C	R	140	1	597
33	4	Grid1	C	R	170	1	1428
33	5	Grid1	C	R	60	1	1195
33	6	Grid1	C	R	110	1	536
33	7	Grid1	C	R	190	0	581
33	8	Grid1	C	R	220	0	427
33	9	Grid1	C	R	70	1	426
33	10	Grid1	C	R	100	1	437
33	11	Grid1	C	R	90	1	355
33	12	Grid1	C	R	170	0	448
33	13	Grid1	C	R	180	0	372
33	14	Grid1	C	R	80	1	368
33	15	Grid1	C	R	70	1	341
33	16	Grid1	C	R	210	0	435
33	17	Grid1	C	R	180	0	463
33	18	Grid1	C	R	150	0	1357
33	19	Grid1	C	R	220	0	595
33	20	Grid1	C	R	140	1	661
33	21	Grid1	C	R	150	1	409
33	22	Grid1	C	R	200	0	579
33	23	Grid1	C	R	160	1	653
33	24	Grid1	C	R	240	0	572
33	25	Grid1	C	R	230	0	366
33	26	Grid1	C	R	100	1	502
33	27	Grid1	C	R	120	1	425
33	28	Grid1	C	R	200	0	427
33	29	Grid1	C	R	210	0	413
33	30	Grid1	C	R	60	1	394
33	31	Grid1	C	R	230	0	401
33	32	Grid1	C	R	120	1	363
33	33	Grid1	C	R	160	1	349
33	34	Grid1	C	R	110	1	452
33	35	Grid1	C	R	240	0	404
33	36	Grid1	C	R	130	1	370
33	37	Grid1	C	R	90	1	369
33	38	Grid1	C	R	130	1	331
34	1	Grid1	R	L	130	1	2304
34	2	Grid1	R	L	170	1	599
34	3	Grid1	R	L	150	1	540
34	4	Grid1	R	L	90	0	498
34	5	Grid1	R	L	240	0	1935
34	6	Grid1	R	L	210	0	738
34	7	Grid1	R	L	110	0	2122
34	8	Grid1	R	L	180	1	873
34	9	Grid1	R	L	240	0	922
34	10	Grid1	R	L	140	1	660
34	11	Grid1	R	L	100	0	627
34	12	Grid1	R	L	190	1	2444
34	13	Grid1	R	L	220	0	1266
34	14	Grid1	R	L	80	0	602
34	15	Grid1	R	L	60	0	506
34	16	Grid1	R	L	120	1	816
34	17	Grid1	R	L	60	0	697
34	18	Grid1	R	L	200	0	693
34	19	Grid1	R	L	110	0	991
34	20	Grid1	R	L	160	1	1425
34	21	Grid1	R	L	100	0	891
34	22	Grid1	R	L	160	0	666
34	23	Grid1	R	L	70	0	1205
34	24	Grid1	R	L	230	0	1774
34	25	Grid1	R	L	140	1	1355
34	26	Grid1	R	L	180	1	533
34	27	Grid1	R	L	120	1	995
34	28	Grid1	R	L	70	0	626
34	29	Grid1	R	L	90	0	485
34	30	Grid1	R	L	170	1	743
34	31	Grid1	R	L	190	1	704
34	32	Grid1	R	L	200	0	1343
34	33	Grid1	R	L	220	0	643
34	34	Grid1	R	L	80	0	1710
34	35	Grid1	R	L	150	1	1915
34	36	Grid1	R	L	230	1	674
34	37	Grid1	R	L	130	0	730
34	38	Grid1	R	L	210	0	760
35	1	Grid1	R	L	150	1	704
35	2	Grid1	R	L	130	1	764
35	3	Grid1	R	L	60	0	487
35	4	Grid1	R	L	70	0	515
35	5	Grid1	R	L	230	1	1290
35	6	Grid1	R	L	180	1	570
35	7	Grid1	R	L	240	1	2792
35	8	Grid1	R	L	240	1	455
35	9	Grid1	R	L	100	0	497
35	10	Grid1	R	L	160	1	2547
35	11	Grid1	R	L	140	1	849
35	12	Grid1	R	L	100	1	969
35	13	Grid1	R	L	180	1	601
35	14	Grid1	R	L	80	0	626
35	15	Grid1	R	L	90	0	559
35	16	Grid1	R	L	60	0	670
35	17	Grid1	R	L	220	1	1012
35	18	Grid1	R	L	200	1	494
35	19	Grid1	R	L	140	1	2160
35	20	Grid1	R	L	160	1	417
35	21	Grid1	R	L	70	0	467
35	22	Grid1	R	L	120	0	465
35	23	Grid1	R	L	230	1	575
35	24	Grid1	R	L	90	0	657
35	25	Grid1	R	L	110	0	483
35	26	Grid1	R	L	170	1	483
35	27	Grid1	R	L	150	1	467
35	28	Grid1	R	L	190	1	450
35	29	Grid1	R	L	200	1	491
35	30	Grid1	R	L	110	0	639
35	31	Grid1	R	L	120	0	686
35	32	Grid1	R	L	130	0	853
35	33	Grid1	R	L	220	1	545
35	34	Grid1	R	L	80	0	573
35	35	Grid1	R	L	190	1	532
35	36	Grid1	R	L	170	1	620
35	37	Grid1	R	L	210	1	614
35	38	Grid1	R	L	210	1	433
36	1	Grid1	C	L	110	1	2576
36	2	Grid1	C	L	60	1	968
36	3	Grid1	C	L	70	1	851
36	4	Grid1	C	L	160	0	747
36	5	Grid1	C	L	180	1	1079
36	6	Grid1	C	L	90	1	949
36	7	Grid1	C	L	230	0	1780
36	8	Grid1	C	L	210	0	766
36	9	Grid1	C	L	70	1	499
36	10	Grid1	C	L	150	0	464
36	11	Grid1	C	L	130	1	289
36	12	Grid1	C	L	200	1	379
36	13	Grid1	C	L	160	1	324
36	14	Grid1	C	L	240	0	354
36	15	Grid1	C	L	60	1	375
36	16	Grid1	C	L	230	0	390
36	17	Grid1	C	L	190	1	326
36	18	Grid1	C	L	190	0	289
36	19	Grid1	C	L	200	1	236
36	20	Grid1	C	L	130	0	195
36	21	Grid1	C	L	240	1	213
36	22	Grid1	C	L	170	0	167
36	23	Grid1	C	L	90	1	229
36	24	Grid1	C	L	170	0	162
36	25	Grid1	C	L	140	1	289
36	26	Grid1	C	L	220	0	1210
36	27	Grid1	C	L	110	1	535
36	28	Grid1	C	L	100	1	526
36	29	Grid1	C	L	80	1	440
36	30	Grid1	C	L	80	1	352
36	31	Grid1	C	L	140	1	278
36	32	Grid1	C	L	210	0	467
36	33	Grid1	C	L	120	1	306
36	34	Grid1	C	L	220	0	400
36	35	Grid1	C	L	120	1	226
36	36	Grid1	C	L	100	0	239
36	37	Grid1	C	L	180	1	241
36	38	Grid1	C	L	150	1	274
37	1	Grid1	C	R	180	1	2560
37	2	Grid1	C	R	190	1	912
37	3	Grid1	C	R	130	1	904
37	4	Grid1	C	R	110	1	834
37	5	Grid1	C	R	140	1	521
37	6	Grid1	C	R	240	0	525
37	7	Grid1	C	R	170	1	422
37	8	Grid1	C	R	220	0	538
37	9	Grid1	C	R	140	1	378
37	10	Grid1	C	R	200	0	1323
37	11	Grid1	C	R	110	1	617
37	12	Grid1	C	R	100	1	410
37	13	Grid1	C	R	210	0	518
37	14	Grid1	C	R	70	1	372
37	15	Grid1	C	R	80	1	559
37	16	Grid1	C	R	170	0	479
37	17	Grid1	C	R	60	1	326
37	18	Grid1	C	R	230	0	510
37	19	Grid1	C	R	70	1	261
37	20	Grid1	C	R	120	1	682
37	21	Grid1	C	R	160	1	332
37	22	Grid1	C	R	130	1	327
37	23	Grid1	C	R	210	1	282
37	24	Grid1	C	R	230	0	608
37	25	Grid1	C	R	200	0	449
37	26	Grid1	C	R	150	1	407
37	27	Grid1	C	R	180	0	1166
37	28	Grid1	C	R	80	1	461
37	29	Grid1	C	R	160	0	596
37	30	Grid1	C	R	150	1	1070
37	31	Grid1	C	R	240	0	462
37	32	Grid1	C	R	120	1	366
37	33	Grid1	C	R	90	1	619
37	34	Grid1	C	R	90	1	397
37	35	Grid1	C	R	220	0	505
37	36	Grid1	C	R	190	0	932
37	37	Grid1	C	R	60	1	449
37	38	Grid1	C	R	100	0	397
38	1	Grid1	R	L	170	1	1577
38	2	Grid1	R	L	110	0	1234
38	3	Grid1	R	L	90	0	715
38	4	Grid1	R	L	180	1	683
38	5	Grid1	R	L	190	1	586
38	6	Grid1	R	L	60	0	504
38	7	Grid1	R	L	130	0	2051
38	8	Grid1	R	L	200	1	688
38	9	Grid1	R	L	110	0	617
38	10	Grid1	R	L	190	1	490
38	11	Grid1	R	L	100	0	429
38	12	Grid1	R	L	230	1	419
38	13	Grid1	R	L	60	0	557
38	14	Grid1	R	L	240	1	481
38	15	Grid1	R	L	140	0	454
38	16	Grid1	R	L	70	0	407
38	17	Grid1	R	L	100	0	474
38	18	Grid1	R	L	140	0	478
38	19	Grid1	R	L	130	0	481
38	20	Grid1	R	L	150	0	534
38	21	Grid1	R	L	150	0	613
38	22	Grid1	R	L	210	1	785
38	23	Grid1	R	L	80	0	405
38	24	Grid1	R	L	170	1	431
38	25	Grid1	R	L	160	1	476
38	26	Grid1	R	L	160	1	473
38	27	Grid1	R	L	240	1	522
38	28	Grid1	R	L	210	1	548
38	29	Grid1	R	L	90	0	415
38	30	Grid1	R	L	230	1	543
38	31	Grid1	R	L	220	1	438
38	32	Grid1	R	L	70	0	425
38	33	Grid1	R	L	200	1	692
38	34	Grid1	R	L	120	0	473
38	35	Grid1	R	L	80	0	742
38	36	Grid1	R	L	120	0	556
38	37	Grid1	R	L	220	1	453
38	38	Grid1	R	L	180	1	406
1	1	Grid2	C	L	90	1	2602
1	2	Grid2	C	L	130	0	2913
1	3	Grid2	C	L	180	0	1018
1	4	Grid2	C	L	200	0	770
1	5	Grid2	C	L	100	1	2301
1	6	Grid2	C	L	110	1	2183
1	7	Grid2	C	L	180	0	750
1	8	Grid2	C	L	120	0	2513
1	9	Grid2	C	L	80	1	1048
1	10	Grid2	C	L	100	1	1303
1	11	Grid2	C	L	110	1	809
1	12	Grid2	C	L	200	0	778
1	13	Grid2	C	L	120	1	2788
1	14	Grid2	C	L	210	0	705
1	15	Grid2	C	L	170	0	1264
1	16	Grid2	C	L	190	0	556
1	17	Grid2	C	L	80	1	745
1	18	Grid2	C	L	220	0	622
1	19	Grid2	C	L	210	0	1897
1	20	Grid2	C	L	60	1	787
1	21	Grid2	C	L	240	0	657
1	22	Grid2	C	L	70	1	1333
1	23	Grid2	C	L	240	0	576
1	24	Grid2	C	L	160	0	2017
1	25	Grid2	C	L	90	1	628
1	26	Grid2	C	L	190	0	593
1	27	Grid2	C	L	220	0	696
1	28	Grid2	C	L	230	0	609
1	29	Grid2	C	L	150	0	3129
1	30	Grid2	C	L	170	0	1018
1	31	Grid2	C	L	160	0	1044
1	32	Grid2	C	L	60	1	853
1	33	Grid2	C	L	130	0	1518
1	34	Grid2	C	L	230	0	638
1	35	Grid2	C	L	70	1	735
1	36	Grid2	C	L	150	0	769
1	37	Grid2	C	L	140	0	554
1	38	Grid2	C	L	140	0	519
2	1	Grid2	C	R	230	0	1526
2	2	Grid2	C	R	110	1	2905
2	3	Grid2	C	R	160	1	1090
2	4	Grid2	C	R	190	0	1016
2	5	Grid2	C	R	90	1	722
2	6	Grid2	C	R	240	0	532
2	7	Grid2	C	R	150	1	493
2	8	Grid2	C	R	170	1	478
2	9	Grid2	C	R	70	1	674
2	10	Grid2	C	R	100	1	347
2	11	Grid2	C	R	110	1	340
2	12	Grid2	C	R	130	1	463
2	13	Grid2	C	R	190	0	1236
2	14	Grid2	C	R	210	0	799
2	15	Grid2	C	R	160	1	878
2	16	Grid2	C	R	60	1	472
2	17	Grid2	C	R	80	1	371
2	18	Grid2	C	R	220	0	542
2	19	Grid2	C	R	140	1	1021
2	20	Grid2	C	R	90	1	588
2	21	Grid2	C	R	200	0	558
2	22	Grid2	C	R	220	0	664
2	23	Grid2	C	R	130	1	792
2	24	Grid2	C	R	170	1	1224
2	25	Grid2	C	R	240	0	910
2	26	Grid2	C	R	60	1	572
2	27	Grid2	C	R	120	1	415
2	28	Grid2	C	R	200	0	995
2	29	Grid2	C	R	70	1	660
2	30	Grid2	C	R	180	1	3518
2	31	Grid2	C	R	80	1	471
2	32	Grid2	C	R	210	0	729
2	33	Grid2	C	R	180	1	776
2	34	Grid2	C	R	120	1	811
2	35	Grid2	C	R	100	1	364
2	36	Grid2	C	R	150	1	311
2	37	Grid2	C	R	140	1	734
2	38	Grid2	C	R	230	0	622
3	1	Grid2	R	L	130	0	872
3	2	Grid2	R	L	240	1	1699
3	3	Grid2	R	L	110	0	480
3	4	Grid2	R	L	160	0	373
3	5	Grid2	R	L	120	0	326
3	6	Grid2	R	L	160	0	409
3	7	Grid2	R	L	90	0	648
3	8	Grid2	R	L	70	0	446
3	9	Grid2	R	L	90	0	293
3	10	Grid2	R	L	200	1	467
3	11	Grid2	R	L	180	1	399
3	12	Grid2	R	L	230	1	678
3	13	Grid2	R	L	200	1	383
3	14	Grid2	R	L	70	0	426
3	15	Grid2	R	L	130	0	392
3	16	Grid2	R	L	140	0	344
3	17	Grid2	R	L	60	0	349
3	18	Grid2	R	L	60	0	284
3	19	Grid2	R	L	190	1	493
3	20	Grid2	R	L	170	1	426
3	21	Grid2	R	L	190	1	566
3	22	Grid2	R	L	210	1	719
3	23	Grid2	R	L	240	1	354
3	24	Grid2	R	L	170	0	424
3	25	Grid2	R	L	230	1	491
3	26	Grid2	R	L	180	1	397
3	27	Grid2	R	L	220	1	701
3	28	Grid2	R	L	140	0	534
3	29	Grid2	R	L	120	0	427
3	30	Grid2	R	L	220	1	559
3	31	Grid2	R	L	100	0	476
3	32	Grid2	R	L	150	0	377
3	33	Grid2	R	L	110	0	356
3	34	Grid2	R	L	80	0	342
3	35	Grid2	R	L	100	0	272
3	36	Grid2	R	L	80	0	287
3	37	Grid2	R	L	150	0	259
3	38	Grid2	R	L	210	1	534
4	1	Grid2	R	R	60	1	3049
4	2	Grid2	R	R	100	1	840
4	3	Grid2	R	R	130	0	6957
4	4	Grid2	R	R	110	0	559
4	5	Grid2	R	R	210	1	775
4	6	Grid2	R	R	140	1	852
4	7	Grid2	R	R	190	1	405
4	8	Grid2	R	R	110	0	731
4	9	Grid2	R	R	210	1	280
4	10	Grid2	R	R	180	1	781
4	11	Grid2	R	R	150	1	438
4	12	Grid2	R	R	130	0	743
4	13	Grid2	R	R	150	0	580
4	14	Grid2	R	R	220	0	604
4	15	Grid2	R	R	90	1	1470
4	16	Grid2	R	R	160	1	578
4	17	Grid2	R	R	80	1	521
4	18	Grid2	R	R	240	1	469
4	19	Grid2	R	R	200	0	1206
4	20	Grid2	R	R	230	1	2154
4	21	Grid2	R	R	160	0	874
4	22	Grid2	R	R	70	1	680
4	23	Grid2	R	R	70	0	829
4	24	Grid2	R	R	120	0	379
4	25	Grid2	R	R	200	0	777
4	26	Grid2	R	R	170	0	394
4	27	Grid2	R	R	230	1	470
4	28	Grid2	R	R	90	0	579
4	29	Grid2	R	R	100	0	361
4	30	Grid2	R	R	190	1	401
4	31	Grid2	R	R	80	0	224
4	32	Grid2	R	R	180	0	240
4	33	Grid2	R	R	170	1	223
4	34	Grid2	R	R	220	0	165
4	35	Grid2	R	R	140	0	269
4	36	Grid2	R	R	240	0	248
4	37	Grid2	R	R	60	0	330
4	38	Grid2	R	R	120	1	271
5	1	Grid2	C	L	150	1	2371
5	2	Grid2	C	L	60	1	1597
5	3	Grid2	C	L	70	1	367
5	4	Grid2	C	L	220	0	574
5	5	Grid2	C	L	210	0	490
5	6	Grid2	C	L	230	0	407
5	7	Grid2	C	L	160	0	657
5	8	Grid2	C	L	80	1	490
5	9	Grid2	C	L	240	0	501
5	10	Grid2	C	L	190	0	803
5	11	Grid2	C	L	170	0	498
5	12	Grid2	C	L	210	0	501
5	13	Grid2	C	L	200	0	686
5	14	Grid2	C	L	90	1	475
5	15	Grid2	C	L	140	1	808
5	16	Grid2	C	L	100	1	532
5	17	Grid2	C	L	110	1	368
5	18	Grid2	C	L	70	1	349
5	19	Grid2	C	L	180	1	3003
5	20	Grid2	C	L	190	1	510
5	21	Grid2	C	L	180	1	381
5	22	Grid2	C	L	130	1	703
5	23	Grid2	C	L	160	0	550
5	24	Grid2	C	L	60	1	693
5	25	Grid2	C	L	140	1	969
5	26	Grid2	C	L	120	1	380
5	27	Grid2	C	L	150	1	660
5	28	Grid2	C	L	100	1	219
5	29	Grid2	C	L	220	1	271
5	30	Grid2	C	L	230	0	407
5	31	Grid2	C	L	110	1	812
5	32	Grid2	C	L	170	1	1344
5	33	Grid2	C	L	130	1	595
5	34	Grid2	C	L	90	1	286
5	35	Grid2	C	L	240	0	489
5	36	Grid2	C	L	80	1	432
5	37	Grid2	C	L	200	0	516
5	38	Grid2	C	L	120	1	383
6	1	Grid2	C	R	240	0	1044
6	2	Grid2	C	R	70	1	617
6	3	Grid2	C	R	70	1	540
6	4	Grid2	C	R	150	1	719
6	5	Grid2	C	R	100	1	504
6	6	Grid2	C	R	200	0	649
6	7	Grid2	C	R	60	1	367
6	8	Grid2	C	R	130	1	739
6	9	Grid2	C	R	140	1	466
6	10	Grid2	C	R	150	1	404
6	11	Grid2	C	R	220	0	531
6	12	Grid2	C	R	90	1	357
6	13	Grid2	C	R	140	1	494
6	14	Grid2	C	R	230	0	569
6	15	Grid2	C	R	170	1	471
6	16	Grid2	C	R	60	1	479
6	17	Grid2	C	R	80	1	401
6	18	Grid2	C	R	110	1	469
6	19	Grid2	C	R	190	1	647
6	20	Grid2	C	R	110	1	492
6	21	Grid2	C	R	160	1	459
6	22	Grid2	C	R	170	1	365
6	23	Grid2	C	R	160	1	324
6	24	Grid2	C	R	100	1	251
6	25	Grid2	C	R	190	1	285
6	26	Grid2	C	R	230	0	412
6	27	Grid2	C	R	200	0	622
6	28	Grid2	C	R	180	1	1089
6	29	Grid2	C	R	130	1	449
6	30	Grid2	C	R	120	1	383
6	31	Grid2	C	R	120	1	315
6	32	Grid2	C	R	90	1	280
6	33	Grid2	C	R	240	0	528
6	34	Grid2	C	R	180	1	456
6	35	Grid2	C	R	220	0	699
6	36	Grid2	C	R	210	0	641
6	37	Grid2	C	R	210	0	469
6	38	Grid2	C	R	80	1	474
7	1	Grid2	R	L	160	0	1318
7	2	Grid2	R	L	240	1	613
7	3	Grid2	R	L	220	1	331
7	4	Grid2	R	L	70	0	508
7	5	Grid2	R	L	170	1	406
7	6	Grid2	R	L	120	0	470
7	7	Grid2	R	L	230	1	520
7	8	Grid2	R	L	130	0	477
7	9	Grid2	R	L	180	0	427
7	10	Grid2	R	L	90	0	696
7	11	Grid2	R	L	200	1	459
7	12	Grid2	R	L	190	1	466
7	13	Grid2	R	L	60	0	483
7	14	Grid2	R	L	90	0	390
7	15	Grid2	R	L	230	1	420
7	16	Grid2	R	L	80	0	479
7	17	Grid2	R	L	140	1	481
7	18	Grid2	R	L	210	1	655
7	19	Grid2	R	L	60	0	570
7	20	Grid2	R	L	70	0	738
7	21	Grid2	R	L	120	1	2122
7	22	Grid2	R	L	100	1	400
7	23	Grid2	R	L	100	1	378
7	24	Grid2	R	L	130	1	482
7	25	Grid2	R	L	170	1	323
7	26	Grid2	R	L	110	0	844
7	27	Grid2	R	L	200	1	298
7	28	Grid2	R	L	80	0	1442
7	29	Grid2	R	L	160	1	458
7	30	Grid2	R	L	240	1	352
7	31	Grid2	R	L	110	0	819
7	32	Grid2	R	L	180	1	422
7	33	Grid2	R	L	190	1	356
7	34	Grid2	R	L	150	1	264
7	35	Grid2	R	L	220	1	247
7	36	Grid2	R	L	140	0	592
7	37	Grid2	R	L	150	0	617
7	38	Grid2	R	L	210	1	467
8	1	Grid2	R	R	180	0	1522
8	2	Grid2	R	R	240	1	2186
8	3	Grid2	R	R	120	0	388
8	4	Grid2	R	R	70	0	660
8	5	Grid2	R	R	80	0	333
8	6	Grid2	R	R	170	0	866
8	7	Grid2	R	R	110	0	558
8	8	Grid2	R	R	190	0	1088
8	9	Grid2	R	R	130	0	505
8	10	Grid2	R	R	230	1	530
8	11	Grid2	R	R	60	0	420
8	12	Grid2	R	R	230	1	601
8	13	Grid2	R	R	110	0	473
8	14	Grid2	R	R	210	1	541
8	15	Grid2	R	R	100	0	417
8	16	Grid2	R	R	150	0	904
8	17	Grid2	R	R	90	0	472
8	18	Grid2	R	R	200	1	814
8	19	Grid2	R	R	120	0	758
8	20	Grid2	R	R	200	1	535
8	21	Grid2	R	R	140	0	495
8	22	Grid2	R	R	70	0	661
8	23	Grid2	R	R	80	0	438
8	24	Grid2	R	R	160	0	960
8	25	Grid2	R	R	220	1	559
8	26	Grid2	R	R	90	0	434
8	27	Grid2	R	R	170	1	891
8	28	Grid2	R	R	160	0	849
8	29	Grid2	R	R	190	1	699
8	30	Grid2	R	R	60	0	422
8	31	Grid2	R	R	130	0	520
8	32	Grid2	R	R	100	0	394
8	33	Grid2	R	R	240	1	469
8	34	Grid2	R	R	220	1	428
8	35	Grid2	R	R	210	1	1210
8	36	Grid2	R	R	180	0	437
8	37	Grid2	R	R	140	0	474
8	38	Grid2	R	R	150	0	697
9	1	Grid2	C	L	110	1	1330
9	2	Grid2	C	L	170	1	4682
9	3	Grid2	C	L	130	1	614
9	4	Grid2	C	L	220	0	404
9	5	Grid2	C	L	90	1	479
9	6	Grid2	C	L	220	0	452
9	7	Grid2	C	L	120	1	666
9	8	Grid2	C	L	240	0	387
9	9	Grid2	C	L	140	1	1025
9	10	Grid2	C	L	120	1	329
9	11	Grid2	C	L	160	1	90
9	12	Grid2	C	L	60	1	195
9	13	Grid2	C	L	150	1	251
9	14	Grid2	C	L	80	1	24
9	15	Grid2	C	L	200	0	266
9	16	Grid2	C	L	180	0	264
9	17	Grid2	C	L	170	0	243
9	18	Grid2	C	L	200	0	5
9	19	Grid2	C	L	190	0	253
9	20	Grid2	C	L	230	0	163
9	21	Grid2	C	L	70	0	243
9	22	Grid2	C	L	100	0	84
9	23	Grid2	C	L	90	1	25
9	24	Grid2	C	L	210	1	166
9	25	Grid2	C	L	210	0	14
9	26	Grid2	C	L	60	1	22
9	27	Grid2	C	L	150	1	74
9	28	Grid2	C	L	100	1	224
9	29	Grid2	C	L	130	1	221
9	30	Grid2	C	L	70	1	271
9	31	Grid2	C	L	110	1	254
9	32	Grid2	C	L	190	1	238
9	33	Grid2	C	L	230	0	148
9	34	Grid2	C	L	180	0	220
9	35	Grid2	C	L	140	0	283
9	36	Grid2	C	L	160	1	216
9	37	Grid2	C	L	240	0	261
9	38	Grid2	C	L	80	0	119
12	1	Grid2	R	R	110	0	1936
12	2	Grid2	R	R	230	1	686
12	3	Grid2	R	R	90	0	1042
12	4	Grid2	R	R	170	1	905
12	5	Grid2	R	R	240	1	618
12	6	Grid2	R	R	60	0	526
12	7	Grid2	R	R	100	0	495
12	8	Grid2	R	R	80	0	465
12	9	Grid2	R	R	70	0	413
12	10	Grid2	R	R	150	1	595
12	11	Grid2	R	R	60	0	431
12	12	Grid2	R	R	160	1	566
12	13	Grid2	R	R	190	1	738
12	14	Grid2	R	R	190	1	421
12	15	Grid2	R	R	100	0	458
12	16	Grid2	R	R	200	1	730
12	17	Grid2	R	R	240	1	716
12	18	Grid2	R	R	210	1	986
12	19	Grid2	R	R	70	0	458
12	20	Grid2	R	R	130	0	837
12	21	Grid2	R	R	180	1	546
12	22	Grid2	R	R	160	1	1911
12	23	Grid2	R	R	140	1	1644
12	24	Grid2	R	R	120	0	740
12	25	Grid2	R	R	120	0	465
12	26	Grid2	R	R	180	1	1143
12	27	Grid2	R	R	90	0	551
12	28	Grid2	R	R	140	1	682
12	29	Grid2	R	R	210	1	798
12	30	Grid2	R	R	230	1	624
12	31	Grid2	R	R	220	1	407
12	32	Grid2	R	R	150	0	525
12	33	Grid2	R	R	110	0	438
12	34	Grid2	R	R	220	1	672
12	35	Grid2	R	R	200	1	820
12	36	Grid2	R	R	130	0	474
12	37	Grid2	R	R	170	0	451
12	38	Grid2	R	R	80	0	554
13	1	Grid2	C	L	240	0	1238
13	2	Grid2	C	L	120	1	1069
13	3	Grid2	C	L	70	1	834
13	4	Grid2	C	L	160	0	1719
13	5	Grid2	C	L	70	1	495
13	6	Grid2	C	L	60	1	403
13	7	Grid2	C	L	200	0	776
13	8	Grid2	C	L	220	0	620
13	9	Grid2	C	L	230	0	494
13	10	Grid2	C	L	170	0	948
13	11	Grid2	C	L	80	1	516
13	12	Grid2	C	L	150	1	786
13	13	Grid2	C	L	110	1	637
13	14	Grid2	C	L	120	1	665
13	15	Grid2	C	L	130	0	1033
13	16	Grid2	C	L	140	0	502
13	17	Grid2	C	L	190	0	916
13	18	Grid2	C	L	150	0	1510
13	19	Grid2	C	L	190	0	779
13	20	Grid2	C	L	110	1	785
13	21	Grid2	C	L	230	0	1208
13	22	Grid2	C	L	210	0	375
13	23	Grid2	C	L	220	0	467
13	24	Grid2	C	L	90	1	615
13	25	Grid2	C	L	80	1	393
13	26	Grid2	C	L	100	1	355
13	27	Grid2	C	L	90	1	373
13	28	Grid2	C	L	180	0	736
13	29	Grid2	C	L	180	0	514
13	30	Grid2	C	L	170	0	953
13	31	Grid2	C	L	130	1	1354
13	32	Grid2	C	L	200	0	722
13	33	Grid2	C	L	140	1	706
13	34	Grid2	C	L	240	0	788
13	35	Grid2	C	L	160	0	778
13	36	Grid2	C	L	210	0	656
13	37	Grid2	C	L	100	1	967
13	38	Grid2	C	L	60	1	406
14	1	Grid2	C	R	210	0	3778
14	2	Grid2	C	R	220	0	1196
14	3	Grid2	C	R	160	1	645
14	4	Grid2	C	R	150	1	402
14	5	Grid2	C	R	240	0	509
14	6	Grid2	C	R	70	1	509
14	7	Grid2	C	R	150	1	495
14	8	Grid2	C	R	140	1	412
14	9	Grid2	C	R	100	1	468
14	10	Grid2	C	R	180	0	602
14	11	Grid2	C	R	60	1	440
14	12	Grid2	C	R	110	1	456
14	13	Grid2	C	R	220	0	421
14	14	Grid2	C	R	180	0	1193
14	15	Grid2	C	R	90	1	413
14	16	Grid2	C	R	230	0	558
14	17	Grid2	C	R	210	0	704
14	18	Grid2	C	R	170	1	782
14	19	Grid2	C	R	100	1	992
14	20	Grid2	C	R	80	1	416
14	21	Grid2	C	R	130	1	366
14	22	Grid2	C	R	130	1	371
14	23	Grid2	C	R	160	1	372
14	24	Grid2	C	R	60	1	360
14	25	Grid2	C	R	170	1	805
14	26	Grid2	C	R	140	1	3665
14	27	Grid2	C	R	240	0	507
14	28	Grid2	C	R	120	1	530
14	29	Grid2	C	R	230	0	490
14	30	Grid2	C	R	110	1	553
14	31	Grid2	C	R	200	0	1000
14	32	Grid2	C	R	90	1	709
14	33	Grid2	C	R	120	1	1144
14	34	Grid2	C	R	70	1	806
14	35	Grid2	C	R	190	1	312
14	36	Grid2	C	R	200	0	515
14	37	Grid2	C	R	80	1	527
14	38	Grid2	C	R	190	0	569
15	1	Grid2	R	L	90	0	3589
15	2	Grid2	R	L	190	1	964
15	3	Grid2	R	L	130	0	723
15	4	Grid2	R	L	60	0	723
15	5	Grid2	R	L	230	1	582
15	6	Grid2	R	L	230	1	486
15	7	Grid2	R	L	240	1	422
15	8	Grid2	R	L	120	0	1721
15	9	Grid2	R	L	110	0	499
15	10	Grid2	R	L	210	1	500
15	11	Grid2	R	L	80	0	551
15	12	Grid2	R	L	160	1	5012
15	13	Grid2	R	L	150	1	623
15	14	Grid2	R	L	140	1	441
15	15	Grid2	R	L	170	1	721
15	16	Grid2	R	L	100	0	577
15	17	Grid2	R	L	200	1	612
15	18	Grid2	R	L	180	1	590
15	19	Grid2	R	L	210	1	516
15	20	Grid2	R	L	60	0	569
15	21	Grid2	R	L	200	1	569
15	22	Grid2	R	L	150	1	1272
15	23	Grid2	R	L	90	0	646
15	24	Grid2	R	L	120	0	1621
15	25	Grid2	R	L	130	0	600
15	26	Grid2	R	L	100	0	418
15	27	Grid2	R	L	190	1	548
15	28	Grid2	R	L	180	1	609
15	29	Grid2	R	L	80	0	681
15	30	Grid2	R	L	70	0	562
15	31	Grid2	R	L	140	0	801
15	32	Grid2	R	L	110	0	545
15	33	Grid2	R	L	160	1	607
15	34	Grid2	R	L	170	1	519
15	35	Grid2	R	L	70	0	638
15	36	Grid2	R	L	220	1	623
15	37	Grid2	R	L	220	1	1290
15	38	Grid2	R	L	240	1	553
16	1	Grid2	R	R	190	1	6901
16	2	Grid2	R	R	120	0	3342
16	3	Grid2	R	R	80	0	899
16	4	Grid2	R	R	130	0	831
16	5	Grid2	R	R	240	1	747
16	6	Grid2	R	R	210	1	570
16	7	Grid2	R	R	60	0	450
16	8	Grid2	R	R	200	1	467
16	9	Grid2	R	R	140	0	338
16	10	Grid2	R	R	140	0	330
16	11	Grid2	R	R	110	0	393
16	12	Grid2	R	R	80	0	371
16	13	Grid2	R	R	170	1	546
16	14	Grid2	R	R	210	0	356
16	15	Grid2	R	R	100	0	674
16	16	Grid2	R	R	150	0	638
16	17	Grid2	R	R	240	1	396
16	18	Grid2	R	R	230	1	424
16	19	Grid2	R	R	90	0	508
16	20	Grid2	R	R	150	0	1938
16	21	Grid2	R	R	60	0	561
16	22	Grid2	R	R	180	1	691
16	23	Grid2	R	R	160	1	1036
16	24	Grid2	R	R	180	0	545
16	25	Grid2	R	R	200	0	387
16	26	Grid2	R	R	170	0	744
16	27	Grid2	R	R	230	1	478
16	28	Grid2	R	R	110	0	413
16	29	Grid2	R	R	70	0	239
16	30	Grid2	R	R	220	1	515
16	31	Grid2	R	R	130	0	270
16	32	Grid2	R	R	90	0	353
16	33	Grid2	R	R	100	0	379
16	34	Grid2	R	R	220	1	460
16	35	Grid2	R	R	120	0	237
16	36	Grid2	R	R	190	1	454
16	37	Grid2	R	R	160	0	237
16	38	Grid2	R	R	70	0	468
17	1	Grid2	C	L	100	1	1335
17	2	Grid2	C	L	160	1	1900
17	3	Grid2	C	L	170	1	1065
17	4	Grid2	C	L	240	0	896
17	5	Grid2	C	L	220	0	758
17	6	Grid2	C	L	130	1	951
17	7	Grid2	C	L	190	0	2793
17	8	Grid2	C	L	90	1	839
17	9	Grid2	C	L	80	1	656
17	10	Grid2	C	L	130	1	671
17	11	Grid2	C	L	60	1	608
17	12	Grid2	C	L	140	1	704
17	13	Grid2	C	L	110	1	655
17	14	Grid2	C	L	200	0	658
17	15	Grid2	C	L	180	0	714
17	16	Grid2	C	L	220	0	687
17	17	Grid2	C	L	100	1	662
17	18	Grid2	C	L	60	1	686
17	19	Grid2	C	L	120	1	687
17	20	Grid2	C	L	80	1	672
17	21	Grid2	C	L	150	1	753
17	22	Grid2	C	L	230	0	664
17	23	Grid2	C	L	70	1	637
17	24	Grid2	C	L	140	1	838
17	25	Grid2	C	L	170	0	3406
17	26	Grid2	C	L	210	0	954
17	27	Grid2	C	L	90	1	673
17	28	Grid2	C	L	160	0	1041
17	29	Grid2	C	L	230	1	570
17	30	Grid2	C	L	70	1	890
17	31	Grid2	C	L	120	1	823
17	32	Grid2	C	L	150	1	950
17	33	Grid2	C	L	180	0	1839
17	34	Grid2	C	L	210	0	536
17	35	Grid2	C	L	240	0	475
17	36	Grid2	C	L	200	0	753
17	37	Grid2	C	L	110	1	870
17	38	Grid2	C	L	190	0	1099
18	1	Grid2	C	R	180	0	1829
18	2	Grid2	C	R	230	0	1297
18	3	Grid2	C	R	160	1	982
18	4	Grid2	C	R	170	0	2837
18	5	Grid2	C	R	150	1	5068
18	6	Grid2	C	R	200	0	1651
18	7	Grid2	C	R	140	1	2144
18	8	Grid2	C	R	240	0	715
18	9	Grid2	C	R	90	1	764
18	10	Grid2	C	R	160	1	6753
18	11	Grid2	C	R	190	0	1478
18	12	Grid2	C	R	190	0	1485
18	13	Grid2	C	R	80	1	648
18	14	Grid2	C	R	170	1	12931
18	15	Grid2	C	R	80	1	1458
18	16	Grid2	C	R	230	0	661
18	17	Grid2	C	R	70	1	686
18	18	Grid2	C	R	60	1	767
18	19	Grid2	C	R	200	0	712
18	20	Grid2	C	R	70	1	613
18	21	Grid2	C	R	180	0	707
18	22	Grid2	C	R	60	1	826
18	23	Grid2	C	R	90	1	734
18	24	Grid2	C	R	100	1	619
18	25	Grid2	C	R	220	0	624
18	26	Grid2	C	R	120	1	824
18	27	Grid2	C	R	240	0	798
18	28	Grid2	C	R	130	1	685
18	29	Grid2	C	R	150	1	532
18	30	Grid2	C	R	100	1	1073
18	31	Grid2	C	R	140	1	818
18	32	Grid2	C	R	210	0	680
18	33	Grid2	C	R	130	1	767
18	34	Grid2	C	R	110	1	576
18	35	Grid2	C	R	220	0	604
18	36	Grid2	C	R	110	1	1187
18	37	Grid2	C	R	120	1	899
18	38	Grid2	C	R	210	0	653
19	1	Grid2	R	L	190	0	956
19	2	Grid2	R	L	230	1	1012
19	3	Grid2	R	L	170	0	753
19	4	Grid2	R	L	210	1	594
19	5	Grid2	R	L	190	0	454
19	6	Grid2	R	L	200	0	520
19	7	Grid2	R	L	130	0	477
19	8	Grid2	R	L	160	0	367
19	9	Grid2	R	L	80	0	325
19	10	Grid2	R	L	220	0	305
19	11	Grid2	R	L	180	0	622
19	12	Grid2	R	L	210	1	1768
19	13	Grid2	R	L	200	1	699
19	14	Grid2	R	L	60	0	673
19	15	Grid2	R	L	170	0	523
19	16	Grid2	R	L	180	0	527
19	17	Grid2	R	L	100	0	613
19	18	Grid2	R	L	130	0	447
19	19	Grid2	R	L	70	0	352
19	20	Grid2	R	L	160	1	541
19	21	Grid2	R	L	60	0	631
19	22	Grid2	R	L	140	0	467
19	23	Grid2	R	L	100	0	479
19	24	Grid2	R	L	90	0	387
19	25	Grid2	R	L	110	0	345
19	26	Grid2	R	L	120	0	338
19	27	Grid2	R	L	230	1	554
19	28	Grid2	R	L	240	1	466
19	29	Grid2	R	L	70	0	594
19	30	Grid2	R	L	240	1	475
19	31	Grid2	R	L	150	0	441
19	32	Grid2	R	L	80	0	522
19	33	Grid2	R	L	90	0	323
19	34	Grid2	R	L	150	0	403
19	35	Grid2	R	L	110	0	360
19	36	Grid2	R	L	220	1	626
19	37	Grid2	R	L	120	0	381
19	38	Grid2	R	L	140	0	642
20	1	Grid2	R	R	130	0	4573
20	2	Grid2	R	R	140	0	1398
20	3	Grid2	R	R	130	0	491
20	4	Grid2	R	R	190	0	592
20	5	Grid2	R	R	240	1	1038
20	6	Grid2	R	R	180	1	366
20	7	Grid2	R	R	110	0	517
20	8	Grid2	R	R	70	0	599
20	9	Grid2	R	R	80	0	510
20	10	Grid2	R	R	170	1	518
20	11	Grid2	R	R	210	1	597
20	12	Grid2	R	R	100	0	428
20	13	Grid2	R	R	100	0	420
20	14	Grid2	R	R	160	0	321
20	15	Grid2	R	R	70	0	482
20	16	Grid2	R	R	120	0	385
20	17	Grid2	R	R	150	1	658
20	18	Grid2	R	R	90	0	567
20	19	Grid2	R	R	200	1	712
20	20	Grid2	R	R	60	0	554
20	21	Grid2	R	R	80	0	546
20	22	Grid2	R	R	110	0	848
20	23	Grid2	R	R	220	1	537
20	24	Grid2	R	R	160	0	662
20	25	Grid2	R	R	60	0	353
20	26	Grid2	R	R	220	1	747
20	27	Grid2	R	R	200	1	493
20	28	Grid2	R	R	210	1	378
20	29	Grid2	R	R	150	0	515
20	30	Grid2	R	R	120	0	419
20	31	Grid2	R	R	90	0	373
20	32	Grid2	R	R	190	1	597
20	33	Grid2	R	R	170	1	402
20	34	Grid2	R	R	240	1	589
20	35	Grid2	R	R	230	1	322
20	36	Grid2	R	R	140	0	549
20	37	Grid2	R	R	180	0	418
20	38	Grid2	R	R	230	1	670
21	1	Grid2	C	L	190	0	744
21	2	Grid2	C	L	120	0	1739
21	3	Grid2	C	L	160	0	570
21	4	Grid2	C	L	60	0	275
21	5	Grid2	C	L	70	1	261
21	6	Grid2	C	L	110	0	278
21	7	Grid2	C	L	130	1	244
21	8	Grid2	C	L	90	0	1000
21	9	Grid2	C	L	110	1	269
21	10	Grid2	C	L	140	0	151
21	11	Grid2	C	L	80	0	188
21	12	Grid2	C	L	170	0	170
21	13	Grid2	C	L	70	1	235
21	14	Grid2	C	L	170	0	148
21	15	Grid2	C	L	200	1	149
21	16	Grid2	C	L	220	0	163
21	17	Grid2	C	L	190	0	192
21	18	Grid2	C	L	120	1	147
21	19	Grid2	C	L	240	1	160
21	20	Grid2	C	L	200	0	108
21	21	Grid2	C	L	180	0	376
21	22	Grid2	C	L	160	1	173
21	23	Grid2	C	L	180	0	161
21	24	Grid2	C	L	230	1	125
21	25	Grid2	C	L	130	0	385
21	26	Grid2	C	L	230	0	140
21	27	Grid2	C	L	60	1	255
21	28	Grid2	C	L	210	1	111
21	29	Grid2	C	L	210	1	136
21	30	Grid2	C	L	140	0	68
21	31	Grid2	C	L	240	0	181
21	32	Grid2	C	L	220	0	531
21	33	Grid2	C	L	150	1	218
21	34	Grid2	C	L	100	1	219
21	35	Grid2	C	L	80	1	120
21	36	Grid2	C	L	100	0	165
21	37	Grid2	C	L	150	0	125
21	38	Grid2	C	L	90	1	70
22	1	Grid2	C	R	150	1	615
22	2	Grid2	C	R	110	1	476
22	3	Grid2	C	R	190	1	894
22	4	Grid2	C	R	80	1	433
22	5	Grid2	C	R	230	0	417
22	6	Grid2	C	R	160	1	384
22	7	Grid2	C	R	220	0	408
22	8	Grid2	C	R	170	1	357
22	9	Grid2	C	R	140	1	457
22	10	Grid2	C	R	200	0	394
22	11	Grid2	C	R	170	1	557
22	12	Grid2	C	R	210	0	419
22	13	Grid2	C	R	220	0	458
22	14	Grid2	C	R	80	1	426
22	15	Grid2	C	R	130	1	403
22	16	Grid2	C	R	100	1	385
22	17	Grid2	C	R	190	0	394
22	18	Grid2	C	R	180	0	471
22	19	Grid2	C	R	180	0	367
22	20	Grid2	C	R	90	1	467
22	21	Grid2	C	R	60	1	482
22	22	Grid2	C	R	70	1	422
22	23	Grid2	C	R	160	0	439
22	24	Grid2	C	R	200	0	410
22	25	Grid2	C	R	230	0	405
22	26	Grid2	C	R	240	0	338
22	27	Grid2	C	R	120	1	397
22	28	Grid2	C	R	90	1	347
22	29	Grid2	C	R	70	1	348
22	30	Grid2	C	R	210	0	404
22	31	Grid2	C	R	110	1	478
22	32	Grid2	C	R	150	1	452
22	33	Grid2	C	R	100	1	437
22	34	Grid2	C	R	140	1	385
22	35	Grid2	C	R	120	1	362
22	36	Grid2	C	R	240	0	383
22	37	Grid2	C	R	130	1	388
22	38	Grid2	C	R	60	1	377
23	1	Grid2	R	L	70	0	6409
23	2	Grid2	R	L	120	0	1368
23	3	Grid2	R	L	100	0	615
23	4	Grid2	R	L	90	0	592
23	5	Grid2	R	L	220	1	676
23	6	Grid2	R	L	140	1	799
23	7	Grid2	R	L	80	0	662
23	8	Grid2	R	L	130	1	1427
23	9	Grid2	R	L	80	0	491
23	10	Grid2	R	L	210	1	498
23	11	Grid2	R	L	190	1	421
23	12	Grid2	R	L	160	1	422
23	13	Grid2	R	L	150	1	448
23	14	Grid2	R	L	190	1	393
23	15	Grid2	R	L	60	0	449
23	16	Grid2	R	L	140	1	400
23	17	Grid2	R	L	240	1	377
23	18	Grid2	R	L	200	1	367
23	19	Grid2	R	L	240	1	387
23	20	Grid2	R	L	150	1	418
23	21	Grid2	R	L	170	1	357
23	22	Grid2	R	L	110	1	387
23	23	Grid2	R	L	230	0	487
23	24	Grid2	R	L	160	1	330
23	25	Grid2	R	L	130	1	305
23	26	Grid2	R	L	70	0	522
23	27	Grid2	R	L	230	1	390
23	28	Grid2	R	L	220	1	369
23	29	Grid2	R	L	60	0	361
23	30	Grid2	R	L	170	1	351
23	31	Grid2	R	L	200	1	377
23	32	Grid2	R	L	110	0	426
23	33	Grid2	R	L	120	0	449
23	34	Grid2	R	L	210	1	412
23	35	Grid2	R	L	180	1	395
23	36	Grid2	R	L	90	0	426
23	37	Grid2	R	L	180	1	518
23	38	Grid2	R	L	100	0	372
24	1	Grid2	R	R	240	1	774
24	2	Grid2	R	R	170	1	4237
24	3	Grid2	R	R	120	0	1150
24	4	Grid2	R	R	70	0	513
24	5	Grid2	R	R	140	0	1704
24	6	Grid2	R	R	90	0	534
24	7	Grid2	R	R	230	1	572
24	8	Grid2	R	R	110	0	668
24	9	Grid2	R	R	200	1	521
24	10	Grid2	R	R	90	0	490
24	11	Grid2	R	R	110	0	1157
24	12	Grid2	R	R	150	0	1551
24	13	Grid2	R	R	190	1	625
24	14	Grid2	R	R	60	0	637
24	15	Grid2	R	R	140	1	753
24	16	Grid2	R	R	160	1	442
24	17	Grid2	R	R	200	1	545
24	18	Grid2	R	R	230	1	381
24	19	Grid2	R	R	170	1	376
24	20	Grid2	R	R	220	1	373
24	21	Grid2	R	R	210	1	355
24	22	Grid2	R	R	210	1	329
24	23	Grid2	R	R	100	0	392
24	24	Grid2	R	R	120	0	417
24	25	Grid2	R	R	100	0	305
24	26	Grid2	R	R	220	1	460
24	27	Grid2	R	R	190	1	527
24	28	Grid2	R	R	180	1	387
24	29	Grid2	R	R	180	1	362
24	30	Grid2	R	R	150	1	365
24	31	Grid2	R	R	60	0	467
24	32	Grid2	R	R	130	0	855
24	33	Grid2	R	R	70	0	429
24	34	Grid2	R	R	160	0	587
24	35	Grid2	R	R	240	1	473
24	36	Grid2	R	R	80	0	412
24	37	Grid2	R	R	80	1	427
24	38	Grid2	R	R	130	0	511
25	1	Grid2	C	L	210	0	1830
25	2	Grid2	C	L	180	0	2828
25	3	Grid2	C	L	100	1	580
25	4	Grid2	C	L	190	0	685
25	5	Grid2	C	L	230	0	574
25	6	Grid2	C	L	110	1	458
25	7	Grid2	C	L	120	1	494
25	8	Grid2	C	L	140	1	693
25	9	Grid2	C	L	170	0	747
25	10	Grid2	C	L	90	1	1060
25	11	Grid2	C	L	60	1	534
25	12	Grid2	C	L	160	0	1582
25	13	Grid2	C	L	70	1	388
25	14	Grid2	C	L	70	1	372
25	15	Grid2	C	L	80	1	377
25	16	Grid2	C	L	90	1	358
25	17	Grid2	C	L	170	0	1067
25	18	Grid2	C	L	200	0	558
25	19	Grid2	C	L	180	0	474
25	20	Grid2	C	L	220	0	409
25	21	Grid2	C	L	200	0	336
25	22	Grid2	C	L	130	1	776
25	23	Grid2	C	L	60	1	434
25	24	Grid2	C	L	240	0	584
25	25	Grid2	C	L	150	1	4159
25	26	Grid2	C	L	140	1	700
25	27	Grid2	C	L	100	1	567
25	28	Grid2	C	L	240	0	521
25	29	Grid2	C	L	110	1	591
25	30	Grid2	C	L	220	0	531
25	31	Grid2	C	L	130	1	631
25	32	Grid2	C	L	150	0	880
25	33	Grid2	C	L	210	1	492
25	34	Grid2	C	L	120	1	1258
25	35	Grid2	C	L	230	0	497
25	36	Grid2	C	L	80	1	547
25	37	Grid2	C	L	160	0	729
25	38	Grid2	C	L	190	0	812
26	1	Grid2	C	R	140	1	1612
26	2	Grid2	C	R	110	1	777
26	3	Grid2	C	R	170	0	712
26	4	Grid2	C	R	160	0	421
26	5	Grid2	C	R	60	1	520
26	6	Grid2	C	R	200	0	529
26	7	Grid2	C	R	150	1	744
26	8	Grid2	C	R	210	0	509
26	9	Grid2	C	R	130	1	531
26	10	Grid2	C	R	210	0	478
26	11	Grid2	C	R	220	0	447
26	12	Grid2	C	R	80	1	423
26	13	Grid2	C	R	240	0	441
26	14	Grid2	C	R	60	1	401
26	15	Grid2	C	R	240	0	497
26	16	Grid2	C	R	90	1	436
26	17	Grid2	C	R	180	0	664
26	18	Grid2	C	R	120	1	767
26	19	Grid2	C	R	230	0	518
26	20	Grid2	C	R	90	1	492
26	21	Grid2	C	R	140	1	528
26	22	Grid2	C	R	110	1	426
26	23	Grid2	C	R	190	0	445
26	24	Grid2	C	R	230	1	390
26	25	Grid2	C	R	160	1	947
26	26	Grid2	C	R	180	0	752
26	27	Grid2	C	R	120	1	584
26	28	Grid2	C	R	190	0	424
26	29	Grid2	C	R	170	0	526
26	30	Grid2	C	R	70	1	551
26	31	Grid2	C	R	200	0	500
26	32	Grid2	C	R	100	1	421
26	33	Grid2	C	R	220	0	392
26	34	Grid2	C	R	100	1	342
26	35	Grid2	C	R	150	0	1000
26	36	Grid2	C	R	80	1	642
26	37	Grid2	C	R	70	1	499
26	38	Grid2	C	R	130	1	949
27	1	Grid2	R	L	220	1	612
27	2	Grid2	R	L	140	1	766
27	3	Grid2	R	L	80	0	752
27	4	Grid2	R	L	210	1	500
27	5	Grid2	R	L	70	0	467
27	6	Grid2	R	L	150	1	781
27	7	Grid2	R	L	200	1	560
27	8	Grid2	R	L	240	1	386
27	9	Grid2	R	L	90	0	477
27	10	Grid2	R	L	80	0	453
27	11	Grid2	R	L	110	1	791
27	12	Grid2	R	L	230	1	481
27	13	Grid2	R	L	130	1	1028
27	14	Grid2	R	L	230	1	464
27	15	Grid2	R	L	240	1	388
27	16	Grid2	R	L	90	1	1297
27	17	Grid2	R	L	180	1	529
27	18	Grid2	R	L	60	1	600
27	19	Grid2	R	L	110	1	915
27	20	Grid2	R	L	210	1	643
27	21	Grid2	R	L	140	1	411
27	22	Grid2	R	L	170	1	368
27	23	Grid2	R	L	170	1	304
27	24	Grid2	R	L	150	1	277
27	25	Grid2	R	L	100	0	644
27	26	Grid2	R	L	100	0	1926
27	27	Grid2	R	L	70	0	534
27	28	Grid2	R	L	120	1	712
27	29	Grid2	R	L	180	1	613
27	30	Grid2	R	L	160	1	524
27	31	Grid2	R	L	60	0	985
27	32	Grid2	R	L	190	1	428
27	33	Grid2	R	L	120	1	2116
27	34	Grid2	R	L	220	1	438
27	35	Grid2	R	L	130	1	721
27	36	Grid2	R	L	200	1	570
27	37	Grid2	R	L	160	1	636
27	38	Grid2	R	L	190	1	426
28	1	Grid2	R	R	150	0	870
28	2	Grid2	R	R	120	0	496
28	3	Grid2	R	R	180	0	585
28	4	Grid2	R	R	60	0	429
28	5	Grid2	R	R	240	1	493
28	6	Grid2	R	R	190	0	1187
28	7	Grid2	R	R	90	0	368
28	8	Grid2	R	R	130	0	369
28	9	Grid2	R	R	230	1	594
28	10	Grid2	R	R	110	0	677
28	11	Grid2	R	R	210	1	839
28	12	Grid2	R	R	70	0	637
28	13	Grid2	R	R	240	1	508
28	14	Grid2	R	R	100	0	437
28	15	Grid2	R	R	170	0	540
28	16	Grid2	R	R	80	0	358
28	17	Grid2	R	R	110	0	359
28	18	Grid2	R	R	160	0	439
28	19	Grid2	R	R	200	0	625
28	20	Grid2	R	R	70	0	549
28	21	Grid2	R	R	140	0	385
28	22	Grid2	R	R	200	1	448
28	23	Grid2	R	R	180	1	493
28	24	Grid2	R	R	160	0	752
28	25	Grid2	R	R	220	1	1110
28	26	Grid2	R	R	100	0	527
28	27	Grid2	R	R	130	0	380
28	28	Grid2	R	R	140	0	300
28	29	Grid2	R	R	210	1	886
28	30	Grid2	R	R	150	0	729
28	31	Grid2	R	R	80	0	582
28	32	Grid2	R	R	120	0	425
28	33	Grid2	R	R	230	1	590
28	34	Grid2	R	R	190	1	3513
28	35	Grid2	R	R	90	0	893
28	36	Grid2	R	R	220	1	960
28	37	Grid2	R	R	60	0	488
28	38	Grid2	R	R	170	0	945
29	1	Grid2	C	L	70	1	810
29	2	Grid2	C	L	120	1	648
29	3	Grid2	C	L	210	0	629
29	4	Grid2	C	L	130	0	442
29	5	Grid2	C	L	90	1	821
29	6	Grid2	C	L	200	0	438
29	7	Grid2	C	L	180	0	436
29	8	Grid2	C	L	130	0	369
29	9	Grid2	C	L	60	1	380
29	10	Grid2	C	L	120	0	464
29	11	Grid2	C	L	230	0	467
29	12	Grid2	C	L	140	0	404
29	13	Grid2	C	L	70	1	446
29	14	Grid2	C	L	230	0	498
29	15	Grid2	C	L	180	0	524
29	16	Grid2	C	L	170	0	365
29	17	Grid2	C	L	170	0	388
29	18	Grid2	C	L	220	0	545
29	19	Grid2	C	L	100	1	552
29	20	Grid2	C	L	80	1	426
29	21	Grid2	C	L	60	1	349
29	22	Grid2	C	L	100	1	582
29	23	Grid2	C	L	200	0	548
29	24	Grid2	C	L	140	0	391
29	25	Grid2	C	L	80	1	864
29	26	Grid2	C	L	160	0	661
29	27	Grid2	C	L	150	0	425
29	28	Grid2	C	L	190	0	601
29	29	Grid2	C	L	110	0	456
29	30	Grid2	C	L	90	1	412
29	31	Grid2	C	L	210	0	644
29	32	Grid2	C	L	240	0	476
29	33	Grid2	C	L	160	0	536
29	34	Grid2	C	L	220	0	501
29	35	Grid2	C	L	240	0	374
29	36	Grid2	C	L	150	0	921
29	37	Grid2	C	L	110	1	421
29	38	Grid2	C	L	190	0	485
30	1	Grid2	C	R	210	0	4795
30	2	Grid2	C	R	170	0	1353
30	3	Grid2	C	R	230	0	1174
30	4	Grid2	C	R	200	0	560
30	5	Grid2	C	R	70	1	576
30	6	Grid2	C	R	210	0	674
30	7	Grid2	C	R	60	1	681
30	8	Grid2	C	R	140	1	912
30	9	Grid2	C	R	130	1	599
30	10	Grid2	C	R	160	1	639
30	11	Grid2	C	R	70	1	894
30	12	Grid2	C	R	220	0	559
30	13	Grid2	C	R	160	0	609
30	14	Grid2	C	R	240	0	504
30	15	Grid2	C	R	110	1	477
30	16	Grid2	C	R	140	1	638
30	17	Grid2	C	R	150	1	495
30	18	Grid2	C	R	190	0	864
30	19	Grid2	C	R	130	0	397
30	20	Grid2	C	R	110	1	652
30	21	Grid2	C	R	150	1	321
30	22	Grid2	C	R	80	1	385
30	23	Grid2	C	R	120	1	653
30	24	Grid2	C	R	180	1	737
30	25	Grid2	C	R	100	1	821
30	26	Grid2	C	R	90	1	359
30	27	Grid2	C	R	60	1	591
30	28	Grid2	C	R	100	1	421
30	29	Grid2	C	R	170	1	954
30	30	Grid2	C	R	200	0	883
30	31	Grid2	C	R	190	0	418
30	32	Grid2	C	R	90	1	614
30	33	Grid2	C	R	220	0	976
30	34	Grid2	C	R	230	0	468
30	35	Grid2	C	R	180	1	772
30	36	Grid2	C	R	120	1	587
30	37	Grid2	C	R	80	1	450
30	38	Grid2	C	R	240	0	570
32	1	Grid2	R	R	120	0	4921
32	2	Grid2	R	R	70	0	668
32	3	Grid2	R	R	220	1	550
32	4	Grid2	R	R	140	0	1058
32	5	Grid2	R	R	110	0	498
32	6	Grid2	R	R	130	0	500
32	7	Grid2	R	R	80	0	744
32	8	Grid2	R	R	150	0	994
32	9	Grid2	R	R	170	1	1173
32	10	Grid2	R	R	120	0	1184
32	11	Grid2	R	R	230	1	535
32	12	Grid2	R	R	200	1	452
32	13	Grid2	R	R	210	1	408
32	14	Grid2	R	R	200	1	336
32	15	Grid2	R	R	170	0	1450
32	16	Grid2	R	R	70	0	537
32	17	Grid2	R	R	230	1	706
32	18	Grid2	R	R	180	1	570
32	19	Grid2	R	R	130	0	752
32	20	Grid2	R	R	150	0	2419
32	21	Grid2	R	R	190	1	495
32	22	Grid2	R	R	190	1	403
32	23	Grid2	R	R	240	1	415
32	24	Grid2	R	R	110	0	483
32	25	Grid2	R	R	220	1	543
32	26	Grid2	R	R	60	0	486
32	27	Grid2	R	R	140	0	492
32	28	Grid2	R	R	240	1	381
32	29	Grid2	R	R	90	0	359
32	30	Grid2	R	R	210	1	455
32	31	Grid2	R	R	100	0	438
32	32	Grid2	R	R	60	0	817
32	33	Grid2	R	R	80	0	367
32	34	Grid2	R	R	180	1	457
32	35	Grid2	R	R	160	1	525
32	36	Grid2	R	R	90	0	1570
32	37	Grid2	R	R	160	0	1725
32	38	Grid2	R	R	100	0	735
33	1	Grid2	C	R	240	0	940
33	2	Grid2	C	R	110	1	611
33	3	Grid2	C	R	160	1	334
33	4	Grid2	C	R	180	1	276
33	5	Grid2	C	R	90	1	364
33	6	Grid2	C	R	140	1	293
33	7	Grid2	C	R	220	0	379
33	8	Grid2	C	R	210	0	379
33	9	Grid2	C	R	140	1	469
33	10	Grid2	C	R	170	1	394
33	11	Grid2	C	R	130	1	335
33	12	Grid2	C	R	190	1	318
33	13	Grid2	C	R	210	1	383
33	14	Grid2	C	R	130	1	338
33	15	Grid2	C	R	220	0	449
33	16	Grid2	C	R	70	1	346
33	17	Grid2	C	R	80	1	313
33	18	Grid2	C	R	110	1	331
33	19	Grid2	C	R	230	0	394
33	20	Grid2	C	R	200	1	330
33	21	Grid2	C	R	100	1	451
33	22	Grid2	C	R	60	1	348
33	23	Grid2	C	R	180	0	541
33	24	Grid2	C	R	240	0	513
33	25	Grid2	C	R	190	1	850
33	26	Grid2	C	R	90	1	451
33	27	Grid2	C	R	150	1	408
33	28	Grid2	C	R	70	1	303
33	29	Grid2	C	R	160	1	608
33	30	Grid2	C	R	80	1	426
33	31	Grid2	C	R	230	0	372
33	32	Grid2	C	R	200	0	322
33	33	Grid2	C	R	100	1	348
33	34	Grid2	C	R	60	1	388
33	35	Grid2	C	R	120	1	353
33	36	Grid2	C	R	120	1	314
33	37	Grid2	C	R	170	1	285
33	38	Grid2	C	R	150	1	323
34	1	Grid2	R	L	230	1	2594
34	2	Grid2	R	L	170	0	1335
34	3	Grid2	R	L	190	0	576
34	4	Grid2	R	L	240	1	568
34	5	Grid2	R	L	220	1	454
34	6	Grid2	R	L	150	0	521
34	7	Grid2	R	L	140	0	389
34	8	Grid2	R	L	120	0	458
34	9	Grid2	R	L	180	0	484
34	10	Grid2	R	L	80	0	523
34	11	Grid2	R	L	160	0	481
34	12	Grid2	R	L	130	0	381
34	13	Grid2	R	L	130	0	396
34	14	Grid2	R	L	230	1	567
34	15	Grid2	R	L	160	0	806
34	16	Grid2	R	L	240	1	411
34	17	Grid2	R	L	200	0	542
34	18	Grid2	R	L	100	0	689
34	19	Grid2	R	L	200	0	685
34	20	Grid2	R	L	210	0	375
34	21	Grid2	R	L	180	0	664
34	22	Grid2	R	L	70	0	716
34	23	Grid2	R	L	120	0	510
34	24	Grid2	R	L	110	0	399
34	25	Grid2	R	L	70	0	365
34	26	Grid2	R	L	80	0	518
34	27	Grid2	R	L	220	1	518
34	28	Grid2	R	L	90	0	545
34	29	Grid2	R	L	140	0	507
34	30	Grid2	R	L	150	0	424
34	31	Grid2	R	L	190	1	740
34	32	Grid2	R	L	210	1	867
34	33	Grid2	R	L	90	0	544
34	34	Grid2	R	L	110	0	384
34	35	Grid2	R	L	60	0	388
34	36	Grid2	R	L	60	0	575
34	37	Grid2	R	L	170	0	340
34	38	Grid2	R	L	100	0	479
35	1	Grid2	R	L	160	1	1689
35	2	Grid2	R	L	60	0	537
35	3	Grid2	R	L	150	1	595
35	4	Grid2	R	L	70	0	584
35	5	Grid2	R	L	240	1	510
35	6	Grid2	R	L	100	0	483
35	7	Grid2	R	L	230	1	562
35	8	Grid2	R	L	150	1	695
35	9	Grid2	R	L	100	0	622
35	10	Grid2	R	L	200	1	553
35	11	Grid2	R	L	80	0	503
35	12	Grid2	R	L	190	1	583
35	13	Grid2	R	L	220	1	591
35	14	Grid2	R	L	80	0	515
35	15	Grid2	R	L	120	0	1497
35	16	Grid2	R	L	110	0	435
35	17	Grid2	R	L	130	0	442
35	18	Grid2	R	L	190	1	528
35	19	Grid2	R	L	210	1	504
35	20	Grid2	R	L	180	1	477
35	21	Grid2	R	L	230	1	527
35	22	Grid2	R	L	140	1	405
35	23	Grid2	R	L	110	0	533
35	24	Grid2	R	L	240	1	497
35	25	Grid2	R	L	180	1	662
35	26	Grid2	R	L	90	0	502
35	27	Grid2	R	L	160	1	954
35	28	Grid2	R	L	140	1	501
35	29	Grid2	R	L	90	0	489
35	30	Grid2	R	L	200	1	536
35	31	Grid2	R	L	60	0	644
35	32	Grid2	R	L	210	1	531
35	33	Grid2	R	L	170	1	559
35	34	Grid2	R	L	220	1	558
35	35	Grid2	R	L	120	0	557
35	36	Grid2	R	L	170	1	575
35	37	Grid2	R	L	70	0	481
35	38	Grid2	R	L	130	1	529
36	1	Grid2	C	L	200	1	554
36	2	Grid2	C	L	170	1	462
36	3	Grid2	C	L	150	1	244
36	4	Grid2	C	L	220	1	239
36	5	Grid2	C	L	190	1	360
36	6	Grid2	C	L	80	1	222
36	7	Grid2	C	L	70	1	218
36	8	Grid2	C	L	130	1	75
36	9	Grid2	C	L	120	1	205
36	10	Grid2	C	L	240	1	134
36	11	Grid2	C	L	110	1	486
36	12	Grid2	C	L	90	1	244
36	13	Grid2	C	L	120	1	208
36	14	Grid2	C	L	180	1	223
36	15	Grid2	C	L	110	1	189
36	16	Grid2	C	L	140	1	129
36	17	Grid2	C	L	160	1	153
36	18	Grid2	C	L	100	1	133
36	19	Grid2	C	L	150	1	101
36	20	Grid2	C	L	170	1	123
36	21	Grid2	C	L	220	1	77
36	22	Grid2	C	L	140	1	74
36	23	Grid2	C	L	190	0	78
36	24	Grid2	C	L	130	0	110
36	25	Grid2	C	L	210	1	139
36	26	Grid2	C	L	180	1	60
36	27	Grid2	C	L	80	0	105
36	28	Grid2	C	L	60	1	238
36	29	Grid2	C	L	90	0	33
36	30	Grid2	C	L	60	0	338
36	31	Grid2	C	L	240	1	35
36	32	Grid2	C	L	100	1	14
36	33	Grid2	C	L	70	1	217
36	34	Grid2	C	L	200	1	77
36	35	Grid2	C	L	230	1	231
36	36	Grid2	C	L	160	1	3
36	37	Grid2	C	L	230	1	195
36	38	Grid2	C	L	210	0	248
37	1	Grid2	C	R	240	0	2906
37	2	Grid2	C	R	210	0	1459
37	3	Grid2	C	R	180	0	2209
37	4	Grid2	C	R	90	1	2133
37	5	Grid2	C	R	230	1	968
37	6	Grid2	C	R	180	1	1120
37	7	Grid2	C	R	200	0	677
37	8	Grid2	C	R	160	1	619
37	9	Grid2	C	R	110	1	961
37	10	Grid2	C	R	70	1	657
37	11	Grid2	C	R	80	0	695
37	12	Grid2	C	R	200	1	745
37	13	Grid2	C	R	140	1	845
37	14	Grid2	C	R	170	0	2099
37	15	Grid2	C	R	150	0	995
37	16	Grid2	C	R	80	1	671
37	17	Grid2	C	R	160	1	615
37	18	Grid2	C	R	120	1	1589
37	19	Grid2	C	R	120	0	478
37	20	Grid2	C	R	240	0	831
37	21	Grid2	C	R	190	0	423
37	22	Grid2	C	R	140	1	804
37	23	Grid2	C	R	230	0	497
37	24	Grid2	C	R	70	0	238
37	25	Grid2	C	R	100	1	220
37	26	Grid2	C	R	190	1	173
37	27	Grid2	C	R	100	0	123
37	28	Grid2	C	R	90	0	112
37	29	Grid2	C	R	210	0	91
37	30	Grid2	C	R	220	0	15
37	31	Grid2	C	R	60	0	208
37	32	Grid2	C	R	110	1	264
37	33	Grid2	C	R	60	1	25
37	34	Grid2	C	R	130	0	162
37	35	Grid2	C	R	150	1	1288
37	36	Grid2	C	R	220	0	101
37	37	Grid2	C	R	130	1	146
37	38	Grid2	C	R	170	1	244
38	1	Grid2	R	L	160	1	3082
38	2	Grid2	R	L	70	0	906
38	3	Grid2	R	L	210	1	543
38	4	Grid2	R	L	100	0	468
38	5	Grid2	R	L	110	0	426
38	6	Grid2	R	L	230	1	479
38	7	Grid2	R	L	150	0	404
38	8	Grid2	R	L	80	0	407
38	9	Grid2	R	L	180	0	438
38	10	Grid2	R	L	60	0	408
38	11	Grid2	R	L	130	0	421
38	12	Grid2	R	L	100	0	379
38	13	Grid2	R	L	200	1	420
38	14	Grid2	R	L	190	1	361
38	15	Grid2	R	L	60	0	397
38	16	Grid2	R	L	140	0	343
38	17	Grid2	R	L	230	1	364
38	18	Grid2	R	L	240	1	316
38	19	Grid2	R	L	90	0	439
38	20	Grid2	R	L	180	1	872
38	21	Grid2	R	L	240	1	465
38	22	Grid2	R	L	80	0	464
38	23	Grid2	R	L	70	0	422
38	24	Grid2	R	L	110	0	424
38	25	Grid2	R	L	140	0	373
38	26	Grid2	R	L	90	0	328
38	27	Grid2	R	L	220	1	393
38	28	Grid2	R	L	160	1	476
38	29	Grid2	R	L	170	1	383
38	30	Grid2	R	L	200	1	431
38	31	Grid2	R	L	120	0	485
38	32	Grid2	R	L	210	1	422
38	33	Grid2	R	L	170	0	426
38	34	Grid2	R	L	190	0	411
38	35	Grid2	R	L	150	1	957
38	36	Grid2	R	L	120	1	632
38	37	Grid2	R	L	130	0	705
38	38	Grid2	R	L	220	1	449
