ID,Block,Trial,BlockType,Condition_Director,CorrectAnswer,IncorrectAnswer,Position,ACC,Stimulus.RT,TrialType,Testlist,Item
2,2,2,2,1,D,?,2,1,2253,0,1,1
2,2,3,2,1,M,P,2,1,4301,2,1,2
2,2,4,2,1,J,?,2,1,3237,0,1,3
2,3,2,1,1,D,?,1,0,2421,1,2,4
2,3,3,1,1,J,?,1,1,2525,0,2,5
2,3,4,1,1,O,?,1,1,2125,0,2,6
2,4,2,1,1,E,?,1,0,0,1,3,7
2,4,3,1,1,M,?,1,0,1517,0,3,8
2,4,4,1,1,P,?,1,1,2205,0,3,9
2,5,2,2,1,C,?,3,1,2469,0,4,10
2,5,3,2,1,H,?,3,1,2076,0,4,11
2,5,4,2,1,K,N,3,0,2437,2,4,12
2,6,2,1,1,H,?,2,1,2829,0,5,13
2,6,3,1,1,K,?,2,1,3596,1,5,14
2,6,4,1,1,P,?,2,1,2276,0,5,15
2,7,2,2,1,N,?,3,1,2521,0,6,16
2,7,3,2,1,P,?,3,1,2705,0,6,17
2,7,4,2,1,F,B,3,1,2425,2,6,18
2,8,2,1,1,M,?,3,1,4873,0,7,19
2,8,3,1,1,A,?,3,1,2657,0,7,20
2,8,4,1,1,J,?,3,1,2833,1,7,21
2,9,2,2,1,M,?,2,0,0,0,8,22
2,9,3,2,1,I,O,2,1,4241,2,8,23
2,9,4,2,1,G,?,2,1,2033,0,8,24
2,10,2,2,1,C,?,3,1,2033,0,9,25
2,10,3,2,1,P,?,3,1,2097,0,9,26
2,10,4,2,1,J,D,3,1,2329,2,9,27
2,11,2,1,1,J,?,2,1,2065,0,10,28
2,11,3,1,1,M,?,2,1,2873,1,10,29
2,11,4,1,1,H,?,2,1,2265,0,10,30
2,12,2,2,1,E,J,1,1,2113,2,11,31
2,12,3,2,1,L,?,1,1,2089,0,11,32
2,12,4,2,1,M,?,1,1,2001,0,11,33
2,13,2,1,1,L,?,3,1,1977,0,12,34
2,13,3,1,1,D,?,3,1,1897,0,12,35
2,13,4,1,1,F,?,3,1,2617,1,12,36
2,14,2,2,1,D,E,1,1,3080,2,13,37
2,14,3,2,1,F,?,1,1,2040,0,13,38
2,14,4,2,1,J,?,1,1,2056,0,13,39
2,15,2,2,1,A,?,2,1,2016,0,14,40
2,15,3,2,1,K,F,2,1,2462,2,14,41
2,15,4,2,1,H,?,2,1,1957,0,14,42
2,16,2,1,1,C,?,3,1,2117,0,15,43
2,16,3,1,1,F,?,3,1,2277,0,15,44
2,16,4,1,1,K,?,3,1,2085,1,15,45
2,17,2,1,1,L,?,2,1,3277,0,16,46
2,17,3,1,1,I,?,2,1,2421,1,16,47
2,17,4,1,1,G,?,2,1,2005,0,16,48
2,1,2,2,2,O,?,2,1,3187,0,1,49
2,1,3,2,2,I,B,2,1,1963,2,1,50
2,1,4,2,2,P,?,2,1,3032,0,1,51
2,2,2,1,2,M,?,1,1,2912,1,2,52
2,2,3,1,2,E,?,1,1,1944,0,2,53
2,2,4,1,2,N,?,1,1,2208,0,2,54
2,3,2,1,2,A,?,2,1,2040,0,3,55
2,3,3,1,2,K,?,2,1,2144,1,3,56
2,3,4,1,2,D,?,2,1,2064,0,3,57
2,4,2,2,2,L,?,3,1,2216,0,4,58
2,4,3,2,2,N,?,3,1,2344,0,4,59
2,4,4,2,2,B,H,3,1,3616,2,4,60
2,5,2,2,2,P,?,2,1,2656,0,5,61
2,5,3,2,2,E,D,2,1,2327,2,5,62
2,5,4,2,2,K,?,2,1,3008,0,5,63
2,6,2,1,2,L,?,1,1,3983,1,6,64
2,6,3,1,2,A,?,1,1,2111,0,6,65
2,6,4,1,2,K,?,1,1,2135,0,6,66
2,7,2,2,2,A,?,3,1,3063,0,7,67
2,7,3,2,2,O,?,3,1,2463,0,7,68
2,7,4,2,2,F,H,3,1,2071,2,7,69
2,8,2,1,2,L,?,1,1,2599,1,8,70
2,8,3,1,2,E,?,1,1,2079,0,8,71
2,8,4,1,2,G,?,1,1,1967,0,8,72
2,9,2,2,2,D,?,2,1,1935,0,9,73
2,9,3,2,2,K,N,2,1,2303,2,9,74
2,9,4,2,2,M,?,2,1,2103,0,9,75
2,10,2,1,2,K,?,2,1,1972,0,10,76
2,10,3,1,2,E,?,2,1,2340,1,10,77
2,10,4,1,2,C,?,2,1,2332,0,10,78
2,11,2,2,2,L,O,1,1,2420,2,11,79
2,11,3,2,2,G,?,1,1,1956,0,11,80
2,11,4,2,2,F,?,1,1,1948,0,11,81
2,12,2,1,2,P,?,2,1,1876,0,12,82
2,12,3,1,2,I,?,2,1,2156,1,12,83
2,12,4,1,2,D,?,2,1,2164,0,12,84
2,13,2,2,2,M,L,1,1,3388,2,13,85
2,13,3,2,2,N,?,1,1,2060,0,13,86
2,13,4,2,2,C,?,1,1,2059,0,13,87
2,14,2,1,2,N,?,3,1,2427,0,14,88
2,14,3,1,2,E,?,3,1,2211,0,14,89
2,14,4,1,2,B,?,3,1,3091,1,14,90
2,15,2,1,2,D,?,3,1,2123,0,15,91
2,15,3,1,2,A,?,3,1,2011,0,15,92
2,15,4,1,2,F,?,3,1,2019,1,15,93
2,16,2,2,2,L,N,1,1,3611,2,16,94
2,16,3,2,2,K,?,1,1,1971,0,16,95
2,16,4,2,2,C,?,1,1,2211,0,16,96
3,2,2,2,1,D,?,2,1,2473,0,1,1
3,2,3,2,1,M,P,2,0,2689,2,1,2
3,2,4,2,1,J,?,2,1,2953,0,1,3
3,3,2,1,1,D,?,1,1,4065,1,2,4
3,3,3,1,1,J,?,1,1,2393,0,2,5
3,3,4,1,1,O,?,1,1,2921,0,2,6
3,4,2,1,1,E,?,1,0,0,1,3,7
3,4,3,1,1,M,?,1,1,2257,0,3,8
3,4,4,1,1,P,?,1,1,2521,0,3,9
3,5,2,2,1,C,?,3,1,2449,0,4,10
3,5,3,2,1,H,?,3,1,2174,0,4,11
3,5,4,2,1,K,N,3,0,3998,2,4,12
3,6,2,1,1,H,?,2,1,3526,0,5,13
3,6,3,1,1,K,?,2,0,3902,1,5,14
3,6,4,1,1,P,?,2,1,3382,0,5,15
3,7,2,2,1,N,?,3,1,3853,0,6,16
3,7,3,2,1,P,?,3,1,2438,0,6,17
3,7,4,2,1,F,B,3,0,2509,2,6,18
3,8,2,1,1,M,?,3,1,3421,0,7,19
3,8,3,1,1,A,?,3,1,2157,0,7,20
3,8,4,1,1,J,?,3,1,3773,1,7,21
3,9,2,2,1,M,?,2,1,2861,0,8,22
3,9,3,2,1,I,O,2,0,3493,2,8,23
3,9,4,2,1,G,?,2,1,2165,0,8,24
3,10,2,2,1,C,?,3,1,2261,0,9,25
3,10,3,2,1,P,?,3,1,2109,0,9,26
3,10,4,2,1,J,D,3,1,2165,2,9,27
3,11,2,1,1,J,?,2,1,2077,0,10,28
3,11,3,1,1,M,?,2,1,2909,1,10,29
3,11,4,1,1,H,?,2,1,2845,0,10,30
3,12,2,2,1,E,J,1,1,3677,2,11,31
3,12,3,2,1,L,?,1,1,2357,0,11,32
3,12,4,2,1,M,?,1,1,2325,0,11,33
3,13,2,1,1,L,?,3,1,3101,0,12,34
3,13,3,1,1,D,?,3,1,2181,0,12,35
3,13,4,1,1,F,?,3,1,3285,1,12,36
3,14,2,2,1,D,E,1,0,2150,2,13,37
3,14,3,2,1,F,?,1,1,2750,0,13,38
3,14,4,2,1,J,?,1,1,2262,0,13,39
3,15,2,2,1,A,?,2,1,2190,0,14,40
3,15,3,2,1,K,F,2,0,2862,2,14,41
3,15,4,2,1,H,?,2,1,2198,0,14,42
3,16,2,1,1,C,?,3,1,3638,0,15,43
3,16,3,1,1,F,?,3,1,2277,0,15,44
3,16,4,1,1,K,?,3,1,2709,1,15,45
3,17,2,1,1,L,?,2,1,2950,0,16,46
3,17,3,1,1,I,?,2,1,3581,1,16,47
3,17,4,1,1,G,?,2,1,2349,0,16,48
3,1,2,2,2,O,?,2,0,3206,0,1,49
3,1,3,2,2,I,B,2,0,2838,2,1,50
3,1,4,2,2,P,?,2,0,5494,0,1,51
3,2,2,1,2,M,?,1,1,3559,1,2,52
3,2,3,1,2,E,?,1,1,2759,0,2,53
3,2,4,1,2,N,?,1,1,2679,0,2,54
3,3,2,1,2,A,?,2,1,2823,0,3,55
3,3,3,1,2,K,?,2,1,3175,1,3,56
3,3,4,1,2,D,?,2,1,2719,0,3,57
3,4,2,2,2,L,?,3,1,2799,0,4,58
3,4,3,2,2,N,?,3,1,3118,0,4,59
3,4,4,2,2,B,H,3,0,3486,2,4,60
3,5,2,2,2,P,?,2,1,2463,0,5,61
3,5,3,2,2,E,D,2,0,2767,2,5,62
3,5,4,2,2,K,?,2,1,2446,0,5,63
3,6,2,1,2,L,?,1,1,3574,1,6,64
3,6,3,1,2,A,?,1,1,2958,0,6,65
3,6,4,1,2,K,?,1,1,2790,0,6,66
3,7,2,2,2,A,?,3,1,3358,0,7,67
3,7,3,2,2,O,?,3,1,2534,0,7,68
3,7,4,2,2,F,H,3,0,4134,2,7,69
3,8,2,1,2,L,?,1,1,2966,1,8,70
3,8,3,1,2,E,?,1,1,3006,0,8,71
3,8,4,1,2,G,?,1,0,0,0,8,72
3,9,2,2,2,D,?,2,1,2238,0,9,73
3,9,3,2,2,K,N,2,0,2206,2,9,74
3,9,4,2,2,M,?,2,1,2166,0,9,75
3,10,2,1,2,K,?,2,1,2518,0,10,76
3,10,3,1,2,E,?,2,1,3486,1,10,77
3,10,4,1,2,C,?,2,1,3030,0,10,78
3,11,2,2,2,L,O,1,0,2651,2,11,79
3,11,3,2,2,G,?,1,1,2131,0,11,80
3,11,4,2,2,F,?,1,1,3035,0,11,81
3,12,2,1,2,P,?,2,0,0,0,12,82
3,12,3,1,2,I,?,2,0,291,1,12,83
3,12,4,1,2,D,?,2,1,3019,0,12,84
3,13,2,2,2,M,L,1,0,2995,2,13,85
3,13,3,2,2,N,?,1,1,2547,0,13,86
3,13,4,2,2,C,?,1,1,2475,0,13,87
3,14,2,1,2,N,?,3,1,2466,0,14,88
3,14,3,1,2,E,?,3,1,2251,0,14,89
3,14,4,1,2,B,?,3,0,0,1,14,90
3,15,2,1,2,D,?,3,1,2986,0,15,91
3,15,3,1,2,A,?,3,1,3106,0,15,92
3,15,4,1,2,F,?,3,1,2802,1,15,93
3,16,2,2,2,L,N,1,0,2994,2,16,94
3,16,3,2,2,K,?,1,1,2410,0,16,95
3,16,4,2,2,C,?,1,1,2522,0,16,96
4,2,2,2,1,D,?,2,1,2045,0,1,1
4,2,3,2,1,M,P,2,1,2093,2,1,2
4,2,4,2,1,J,?,2,1,2261,0,1,3
4,3,2,1,1,D,?,1,1,2645,1,2,4
4,3,3,1,1,J,?,1,1,2325,0,2,5
4,3,4,1,1,O,?,1,1,2157,0,2,6
4,4,2,1,1,E,?,1,1,3813,1,3,7
4,4,3,1,1,M,?,1,1,2101,0,3,8
4,4,4,1,1,P,?,1,1,2181,0,3,9
4,5,2,2,1,C,?,3,1,2365,0,4,10
4,5,3,2,1,H,?,3,1,2405,0,4,11
4,5,4,2,1,K,N,3,1,3445,2,4,12
4,6,2,1,1,H,?,2,1,2053,0,5,13
4,6,3,1,1,K,?,2,1,3717,1,5,14
4,6,4,1,1,P,?,2,1,2661,0,5,15
4,7,2,2,1,N,?,3,1,2549,0,6,16
4,7,3,2,1,P,?,3,1,4421,0,6,17
4,7,4,2,1,F,B,3,1,2045,2,6,18
4,8,2,1,1,M,?,3,1,2749,0,7,19
4,8,3,1,1,A,?,3,1,2525,0,7,20
4,8,4,1,1,J,?,3,1,2525,1,7,21
4,9,2,2,1,M,?,2,1,2205,0,8,22
4,9,3,2,1,I,O,2,1,4077,2,8,23
4,9,4,2,1,G,?,2,1,2221,0,8,24
4,10,2,2,1,C,?,3,1,2093,0,9,25
4,10,3,2,1,P,?,3,1,2165,0,9,26
4,10,4,2,1,J,D,3,1,3077,2,9,27
4,11,2,1,1,J,?,2,1,2101,0,10,28
4,11,3,1,1,M,?,2,1,2293,1,10,29
4,11,4,1,1,H,?,2,1,2533,0,10,30
4,12,2,2,1,E,J,1,1,2973,2,11,31
4,12,3,2,1,L,?,1,1,2277,0,11,32
4,12,4,2,1,M,?,1,1,2365,0,11,33
4,13,2,1,1,L,?,3,1,2181,0,12,34
4,13,3,1,1,D,?,3,1,2037,0,12,35
4,13,4,1,1,F,?,3,1,2269,1,12,36
4,14,2,2,1,D,E,1,1,3173,2,13,37
4,14,3,2,1,F,?,1,1,1917,0,13,38
4,14,4,2,1,J,?,1,1,2077,0,13,39
4,15,2,2,1,A,?,2,1,2061,0,14,40
4,15,3,2,1,K,F,2,0,2741,2,14,41
4,15,4,2,1,H,?,2,1,2061,0,14,42
4,16,2,1,1,C,?,3,1,2237,0,15,43
4,16,3,1,1,F,?,3,1,2149,0,15,44
4,16,4,1,1,K,?,3,1,2109,1,15,45
4,17,2,1,1,L,?,2,0,0,0,16,46
4,17,3,1,1,I,?,2,1,2685,1,16,47
4,17,4,1,1,G,?,2,1,2237,0,16,48
4,1,2,2,2,O,?,2,1,2421,0,1,49
4,1,3,2,2,I,B,2,0,2173,2,1,50
4,1,4,2,2,P,?,2,1,2573,0,1,51
4,2,2,1,2,M,?,1,1,2637,1,2,52
4,2,3,1,2,E,?,1,1,2029,0,2,53
4,2,4,1,2,N,?,1,1,2077,0,2,54
4,3,2,1,2,A,?,2,1,2069,0,3,55
4,3,3,1,2,K,?,2,1,2125,1,3,56
4,3,4,1,2,D,?,2,1,2277,0,3,57
4,4,2,2,2,L,?,3,1,2029,0,4,58
4,4,3,2,2,N,?,3,1,2149,0,4,59
4,4,4,2,2,B,H,3,0,2109,2,4,60
4,5,2,2,2,P,?,2,1,2645,0,5,61
4,5,3,2,2,E,D,2,0,2069,2,5,62
4,5,4,2,2,K,?,2,1,2413,0,5,63
4,6,2,1,2,L,?,1,1,2453,1,6,64
4,6,3,1,2,A,?,1,1,2325,0,6,65
4,6,4,1,2,K,?,1,1,2205,0,6,66
4,7,2,2,2,A,?,3,1,1973,0,7,67
4,7,3,2,2,O,?,3,1,2525,0,7,68
4,7,4,2,2,F,H,3,0,2053,2,7,69
4,8,2,1,2,L,?,1,1,2085,1,8,70
4,8,3,1,2,E,?,1,1,1997,0,8,71
4,8,4,1,2,G,?,1,1,2045,0,8,72
4,9,2,2,2,D,?,2,1,1893,0,9,73
4,9,3,2,2,K,N,2,0,2157,2,9,74
4,9,4,2,2,M,?,2,1,2101,0,9,75
4,10,2,1,2,K,?,2,1,1909,0,10,76
4,10,3,1,2,E,?,2,1,2165,1,10,77
4,10,4,1,2,C,?,2,1,1869,0,10,78
4,11,2,2,2,L,O,1,0,2085,2,11,79
4,11,3,2,2,G,?,1,1,1805,0,11,80
4,11,4,2,2,F,?,1,1,2037,0,11,81
4,12,2,1,2,P,?,2,1,2021,0,12,82
4,12,3,1,2,I,?,2,1,2245,1,12,83
4,12,4,1,2,D,?,2,1,2461,0,12,84
4,13,2,2,2,M,L,1,1,2493,2,13,85
4,13,3,2,2,N,?,1,1,2173,0,13,86
4,13,4,2,2,C,?,1,1,2141,0,13,87
4,14,2,1,2,N,?,3,1,2021,0,14,88
4,14,3,1,2,E,?,3,1,1965,0,14,89
4,14,4,1,2,B,?,3,1,2213,1,14,90
4,15,2,1,2,D,?,3,1,2029,0,15,91
4,15,3,1,2,A,?,3,1,1933,0,15,92
4,15,4,1,2,F,?,3,1,2269,1,15,93
4,16,2,2,2,L,N,1,0,3453,2,16,94
4,16,3,2,2,K,?,1,1,2157,0,16,95
4,16,4,2,2,C,?,1,1,2093,0,16,96
5,2,2,2,1,D,?,2,1,2828,0,1,1
5,2,3,2,1,M,P,2,0,3107,2,1,2
5,2,4,2,1,J,?,2,1,2339,0,1,3
5,3,2,1,1,D,?,1,0,2411,1,2,4
5,3,3,1,1,J,?,1,1,2315,0,2,5
5,3,4,1,1,O,?,1,1,3139,0,2,6
5,4,2,1,1,E,?,1,1,3587,1,3,7
5,4,3,1,1,M,?,1,1,4003,0,3,8
5,4,4,1,1,P,?,1,1,3459,0,3,9
5,5,2,2,1,C,?,3,1,3459,0,4,10
5,5,3,2,1,H,?,3,1,2211,0,4,11
5,5,4,2,1,K,N,3,0,3995,2,4,12
5,6,2,1,1,H,?,2,1,2947,0,5,13
5,6,3,1,1,K,?,2,0,0,1,5,14
5,6,4,1,1,P,?,2,1,307,0,5,15
5,7,2,2,1,N,?,3,1,2148,0,6,16
5,7,3,2,1,P,?,3,0,3324,0,6,17
5,7,4,2,1,F,B,3,1,5132,2,6,18
5,8,2,1,1,M,?,3,1,2924,0,7,19
5,8,3,1,1,A,?,3,1,3260,0,7,20
5,8,4,1,1,J,?,3,1,2180,1,7,21
5,9,2,2,1,M,?,2,0,2524,0,8,22
5,9,3,2,1,I,O,2,0,3052,2,8,23
5,9,4,2,1,G,?,2,1,3348,0,8,24
5,10,2,2,1,C,?,3,1,3004,0,9,25
5,10,3,2,1,P,?,3,1,3180,0,9,26
5,10,4,2,1,J,D,3,1,4300,2,9,27
5,11,2,1,1,J,?,2,1,2323,0,10,28
5,11,3,1,1,M,?,2,1,4780,1,10,29
5,11,4,1,1,H,?,2,1,3467,0,10,30
5,12,2,2,1,E,J,1,0,0,2,11,31
5,12,3,2,1,L,?,1,1,2427,0,11,32
5,12,4,2,1,M,?,1,1,2443,0,11,33
5,13,2,1,1,L,?,3,1,2739,0,12,34
5,13,3,1,1,D,?,3,1,2843,0,12,35
5,13,4,1,1,F,?,3,1,2619,1,12,36
5,14,2,2,1,D,E,1,0,3867,2,13,37
5,14,3,2,1,F,?,1,1,2883,0,13,38
5,14,4,2,1,J,?,1,1,4307,0,13,39
5,15,2,2,1,A,?,2,0,0,0,14,40
5,15,3,2,1,K,F,2,0,3436,2,14,41
5,15,4,2,1,H,?,2,1,2972,0,14,42
5,16,2,1,1,C,?,3,1,3172,0,15,43
5,16,3,1,1,F,?,3,1,3460,0,15,44
5,16,4,1,1,K,?,3,0,0,1,15,45
5,17,2,1,1,L,?,2,1,3172,0,16,46
5,17,3,1,1,I,?,2,1,4604,1,16,47
5,17,4,1,1,G,?,2,0,0,0,16,48
5,1,2,2,2,O,?,2,1,4571,0,1,49
5,1,3,2,2,I,B,2,0,4571,2,1,50
5,1,4,2,2,P,?,2,1,5163,0,1,51
5,2,2,1,2,M,?,1,1,3420,1,2,52
5,2,3,1,2,E,?,1,1,3252,0,2,53
5,2,4,1,2,N,?,1,1,2892,0,2,54
5,3,2,1,2,A,?,2,1,4436,0,3,55
5,3,3,1,2,K,?,2,1,3812,1,3,56
5,3,4,1,2,D,?,2,0,0,0,3,57
5,4,2,2,2,L,?,3,1,4756,0,4,58
5,4,3,2,2,N,?,3,1,4068,0,4,59
5,4,4,2,2,B,H,3,1,2996,2,4,60
5,5,2,2,2,P,?,2,1,4796,0,5,61
5,5,3,2,2,E,D,2,0,4972,2,5,62
5,5,4,2,2,K,?,2,1,2828,0,5,63
5,6,2,1,2,L,?,1,1,5251,1,6,64
5,6,3,1,2,A,?,1,1,2675,0,6,65
5,6,4,1,2,K,?,1,1,2875,0,6,66
5,7,2,2,2,A,?,3,1,4723,0,7,67
5,7,3,2,2,O,?,3,1,3779,0,7,68
5,7,4,2,2,F,H,3,0,5083,2,7,69
5,8,2,1,2,L,?,1,1,4051,1,8,70
5,8,3,1,2,E,?,1,1,3579,0,8,71
5,8,4,1,2,G,?,1,1,5379,0,8,72
5,9,2,2,2,D,?,2,1,5219,0,9,73
5,9,3,2,2,K,N,2,0,0,2,9,74
5,9,4,2,2,M,?,2,0,235,0,9,75
5,10,2,1,2,K,?,2,1,2979,0,10,76
5,10,3,1,2,E,?,2,1,3824,1,10,77
5,10,4,1,2,C,?,2,1,2368,0,10,78
5,11,2,2,2,L,O,1,0,4704,2,11,79
5,11,3,2,2,G,?,1,0,0,0,11,80
5,11,4,2,2,F,?,1,0,448,0,11,81
5,12,2,1,2,P,?,2,1,5112,0,12,82
5,12,3,1,2,I,?,2,0,4904,1,12,83
5,12,4,1,2,D,?,2,1,4544,0,12,84
5,13,2,2,2,M,L,1,0,4152,2,13,85
5,13,3,2,2,N,?,1,0,40,0,13,86
5,13,4,2,2,C,?,1,1,3960,0,13,87
5,14,2,1,2,N,?,3,1,2456,0,14,88
5,14,3,1,2,E,?,3,1,2848,0,14,89
5,14,4,1,2,B,?,3,1,2743,1,14,90
5,15,2,1,2,D,?,3,1,3599,0,15,91
5,15,3,1,2,A,?,3,1,3383,0,15,92
5,15,4,1,2,F,?,3,1,2855,1,15,93
5,16,2,2,2,L,N,1,0,3663,2,16,94
5,16,3,2,2,K,?,1,1,4047,0,16,95
5,16,4,2,2,C,?,1,1,3271,0,16,96
6,2,2,2,1,D,?,2,1,2551,0,1,1
6,2,3,2,1,M,P,2,0,2391,2,1,2
6,2,4,2,1,J,?,2,1,2478,0,1,3
6,3,2,1,1,D,?,1,1,4118,1,2,4
6,3,3,1,1,J,?,1,1,3407,0,2,5
6,3,4,1,1,O,?,1,1,2622,0,2,6
6,4,2,1,1,E,?,1,0,0,1,3,7
6,4,3,1,1,M,?,1,1,4686,0,3,8
6,4,4,1,1,P,?,1,1,2622,0,3,9
6,5,2,2,1,C,?,3,1,2878,0,4,10
6,5,3,2,1,H,?,3,1,2486,0,4,11
6,5,4,2,1,K,N,3,0,2222,2,4,12
6,6,2,1,1,H,?,2,1,2102,0,5,13
6,6,3,1,1,K,?,2,0,5055,1,5,14
6,6,4,1,1,P,?,2,1,4519,0,5,15
6,7,2,2,1,N,?,3,1,2615,0,6,16
6,7,3,2,1,P,?,3,1,2479,0,6,17
6,7,4,2,1,F,B,3,1,2903,2,6,18
6,8,2,1,1,M,?,3,1,2831,0,7,19
6,8,3,1,1,A,?,3,1,2423,0,7,20
6,8,4,1,1,J,?,3,1,2527,1,7,21
6,9,2,2,1,M,?,2,1,2255,0,8,22
6,9,3,2,1,I,O,2,0,4439,2,8,23
6,9,4,2,1,G,?,2,1,2103,0,8,24
6,10,2,2,1,C,?,3,1,2135,0,9,25
6,10,3,2,1,P,?,3,1,2151,0,9,26
6,10,4,2,1,J,D,3,1,2575,2,9,27
6,11,2,1,1,J,?,2,1,2415,0,10,28
6,11,3,1,1,M,?,2,1,3263,1,10,29
6,11,4,1,1,H,?,2,1,2230,0,10,30
6,12,2,2,1,E,J,1,0,3183,2,11,31
6,12,3,2,1,L,?,1,1,2982,0,11,32
6,12,4,2,1,M,?,1,1,2422,0,11,33
6,13,2,1,1,L,?,3,1,2222,0,12,34
6,13,3,1,1,D,?,3,1,2310,0,12,35
6,13,4,1,1,F,?,3,1,2854,1,12,36
6,14,2,2,1,D,E,1,0,3446,2,13,37
6,14,3,2,1,F,?,1,1,2862,0,13,38
6,14,4,2,1,J,?,1,1,2342,0,13,39
6,15,2,2,1,A,?,2,1,2470,0,14,40
6,15,3,2,1,K,F,2,0,2982,2,14,41
6,15,4,2,1,H,?,2,1,2315,0,14,42
6,16,2,1,1,C,?,3,1,2363,0,15,43
6,16,3,1,1,F,?,3,1,2267,0,15,44
6,16,4,1,1,K,?,3,1,3059,1,15,45
6,17,2,1,1,L,?,2,1,2531,0,16,46
6,17,3,1,1,I,?,2,1,3979,1,16,47
6,17,4,1,1,G,?,2,1,2611,0,16,48
6,1,2,2,2,O,?,2,1,2774,0,1,49
6,1,3,2,2,I,B,2,0,3739,2,1,50
6,1,4,2,2,P,?,2,1,5003,0,1,51
6,2,2,1,2,M,?,1,1,3107,1,2,52
6,2,3,1,2,E,?,1,1,3163,0,2,53
6,2,4,1,2,N,?,1,1,2795,0,2,54
6,3,2,1,2,A,?,2,1,2579,0,3,55
6,3,3,1,2,K,?,2,1,2435,1,3,56
6,3,4,1,2,D,?,2,1,2811,0,3,57
6,4,2,2,2,L,?,3,1,2539,0,4,58
6,4,3,2,2,N,?,3,1,2403,0,4,59
6,4,4,2,2,B,H,3,1,2851,2,4,60
6,5,2,2,2,P,?,2,1,2355,0,5,61
6,5,3,2,2,E,D,2,0,4811,2,5,62
6,5,4,2,2,K,?,2,1,2715,0,5,63
6,6,2,1,2,L,?,1,1,2747,1,6,64
6,6,3,1,2,A,?,1,1,3651,0,6,65
6,6,4,1,2,K,?,1,1,2507,0,6,66
6,7,2,2,2,A,?,3,1,2059,0,7,67
6,7,3,2,2,O,?,3,0,3091,0,7,68
6,7,4,2,2,F,H,3,0,2339,2,7,69
6,8,2,1,2,L,?,1,1,3259,1,8,70
6,8,3,1,2,E,?,1,1,2611,0,8,71
6,8,4,1,2,G,?,1,1,2802,0,8,72
6,9,2,2,2,D,?,2,1,3282,0,9,73
6,9,3,2,2,K,N,2,0,3090,2,9,74
6,9,4,2,2,M,?,2,1,4010,0,9,75
6,10,2,1,2,K,?,2,1,2691,0,10,76
6,10,3,1,2,E,?,2,1,4459,1,10,77
6,10,4,1,2,C,?,2,1,4075,0,10,78
6,11,2,2,2,L,O,1,1,5075,2,11,79
6,11,3,2,2,G,?,1,0,0,0,11,80
6,11,4,2,2,F,?,1,1,3723,0,11,81
6,12,2,1,2,P,?,2,1,2555,0,12,82
6,12,3,1,2,I,?,2,1,3651,1,12,83
6,12,4,1,2,D,?,2,1,3243,0,12,84
6,13,2,2,2,M,L,1,0,2643,2,13,85
6,13,3,2,2,N,?,1,1,3723,0,13,86
6,13,4,2,2,C,?,1,1,3987,0,13,87
6,14,2,1,2,N,?,3,1,3795,0,14,88
6,14,3,1,2,E,?,3,1,3099,0,14,89
6,14,4,1,2,B,?,3,1,3539,1,14,90
6,15,2,1,2,D,?,3,1,2643,0,15,91
6,15,3,1,2,A,?,3,1,2459,0,15,92
6,15,4,1,2,F,?,3,1,3155,1,15,93
6,16,2,2,2,L,N,1,0,5123,2,16,94
6,16,3,2,2,K,?,1,1,2235,0,16,95
6,16,4,2,2,C,?,1,1,2459,0,16,96
7,2,2,2,1,D,?,2,1,1813,0,1,1
7,2,3,2,1,M,P,2,0,2989,2,1,2
7,2,4,2,1,J,?,2,1,2181,0,1,3
7,3,2,1,1,D,?,1,1,3053,1,2,4
7,3,3,1,1,J,?,1,1,2189,0,2,5
7,3,4,1,1,O,?,1,1,2229,0,2,6
7,4,2,1,1,E,?,1,0,3557,1,3,7
7,4,3,1,1,M,?,1,0,3457,0,3,8
7,4,4,1,1,P,?,1,1,2393,0,3,9
7,5,2,2,1,C,?,3,0,0,0,4,10
7,5,3,2,1,H,?,3,0,393,0,4,11
7,5,4,2,1,K,N,3,0,2585,2,4,12
7,6,2,1,1,H,?,2,1,2145,0,5,13
7,6,3,1,1,K,?,2,0,0,1,5,14
7,6,4,1,1,P,?,2,0,217,0,5,15
7,7,2,2,1,N,?,3,1,5145,0,6,16
7,7,3,2,1,P,?,3,0,4057,0,6,17
7,7,4,2,1,F,B,3,0,2714,2,6,18
7,8,2,1,1,M,?,3,1,2514,0,7,19
7,8,3,1,1,A,?,3,1,2153,0,7,20
7,8,4,1,1,J,?,3,1,2274,1,7,21
7,9,2,2,1,M,?,2,1,2049,0,8,22
7,9,3,2,1,I,O,2,1,2457,2,8,23
7,9,4,2,1,G,?,2,1,2465,0,8,24
7,10,2,2,1,C,?,3,1,2089,0,9,25
7,10,3,2,1,P,?,3,1,2137,0,9,26
7,10,4,2,1,J,D,3,0,2162,2,9,27
7,11,2,1,1,J,?,2,1,2049,0,10,28
7,11,3,1,1,M,?,2,1,2537,1,10,29
7,11,4,1,1,H,?,2,1,4289,0,10,30
7,12,2,2,1,E,J,1,0,4217,2,11,31
7,12,3,2,1,L,?,1,1,2105,0,11,32
7,12,4,2,1,M,?,1,1,2305,0,11,33
7,13,2,1,1,L,?,3,1,5209,0,12,34
7,13,3,1,1,D,?,3,1,2273,0,12,35
7,13,4,1,1,F,?,3,1,2249,1,12,36
7,14,2,2,1,D,E,1,0,2265,2,13,37
7,14,3,2,1,F,?,1,0,2033,0,13,38
7,14,4,2,1,J,?,1,1,2161,0,13,39
7,15,2,2,1,A,?,2,1,1865,0,14,40
7,15,3,2,1,K,F,2,0,2553,2,14,41
7,15,4,2,1,H,?,2,1,1585,0,14,42
7,16,2,1,1,C,?,3,1,2097,0,15,43
7,16,3,1,1,F,?,3,1,2921,0,15,44
7,16,4,1,1,K,?,3,0,0,1,15,45
7,17,2,1,1,L,?,2,1,2849,0,16,46
7,17,3,1,1,I,?,2,1,5161,1,16,47
7,17,4,1,1,G,?,2,1,2161,0,16,48
7,1,2,2,2,O,?,2,1,4141,0,1,49
7,1,3,2,2,I,B,2,0,2210,2,1,50
7,1,4,2,2,P,?,2,1,3154,0,1,51
7,2,2,1,2,M,?,1,1,2802,1,2,52
7,2,3,1,2,E,?,1,1,2290,0,2,53
7,2,4,1,2,N,?,1,1,2250,0,2,54
7,3,2,1,2,A,?,2,1,2170,0,3,55
7,3,3,1,2,K,?,2,1,1970,1,3,56
7,3,4,1,2,D,?,2,1,1794,0,3,57
7,4,2,2,2,L,?,3,1,2290,0,4,58
7,4,3,2,2,N,?,3,1,3434,0,4,59
7,4,4,2,2,B,H,3,0,2474,2,4,60
7,5,2,2,2,P,?,2,1,2330,0,5,61
7,5,3,2,2,E,D,2,0,1954,2,5,62
7,5,4,2,2,K,?,2,1,1994,0,5,63
7,6,2,1,2,L,?,1,1,3402,1,6,64
7,6,3,1,2,A,?,1,1,2714,0,6,65
7,6,4,1,2,K,?,1,1,2042,0,6,66
7,7,2,2,2,A,?,3,1,2218,0,7,67
7,7,3,2,2,O,?,3,0,2178,0,7,68
7,7,4,2,2,F,H,3,0,2442,2,7,69
7,8,2,1,2,L,?,1,1,2834,1,8,70
7,8,3,1,2,E,?,1,1,2282,0,8,71
7,8,4,1,2,G,?,1,1,2618,0,8,72
7,9,2,2,2,D,?,2,1,1850,0,9,73
7,9,3,2,2,K,N,2,0,2002,2,9,74
7,9,4,2,2,M,?,2,1,1986,0,9,75
7,10,2,1,2,K,?,2,1,1778,0,10,76
7,10,3,1,2,E,?,2,1,2482,1,10,77
7,10,4,1,2,C,?,2,1,2482,0,10,78
7,11,2,2,2,L,O,1,0,2330,2,11,79
7,11,3,2,2,G,?,1,1,1890,0,11,80
7,11,4,2,2,F,?,1,1,3114,0,11,81
7,12,2,1,2,P,?,2,1,4282,0,12,82
7,12,3,1,2,I,?,2,1,2362,1,12,83
7,12,4,1,2,D,?,2,1,2010,0,12,84
7,13,2,2,2,M,L,1,0,2842,2,13,85
7,13,3,2,2,N,?,1,1,1970,0,13,86
7,13,4,2,2,C,?,1,1,2018,0,13,87
7,14,2,1,2,N,?,3,1,2122,0,14,88
7,14,3,1,2,E,?,3,0,4850,0,14,89
7,14,4,1,2,B,?,3,0,266,1,14,90
7,15,2,1,2,D,?,3,1,2498,0,15,91
7,15,3,1,2,A,?,3,1,2226,0,15,92
7,15,4,1,2,F,?,3,1,2274,1,15,93
7,16,2,2,2,L,N,1,0,3234,2,16,94
7,16,3,2,2,K,?,1,1,1954,0,16,95
7,16,4,2,2,C,?,1,1,2842,0,16,96
8,2,2,2,1,D,?,2,1,2602,0,1,1
8,2,3,2,1,M,P,2,0,3202,2,1,2
8,2,4,2,1,J,?,2,1,2674,0,1,3
8,3,2,1,1,D,?,1,1,3249,1,2,4
8,3,3,1,1,J,?,1,1,2815,0,2,5
8,3,4,1,1,O,?,1,1,2503,0,2,6
8,4,2,1,1,E,?,1,1,3350,1,3,7
8,4,3,1,1,M,?,1,1,2542,0,3,8
8,4,4,1,1,P,?,1,1,2598,0,3,9
8,5,2,2,1,C,?,3,1,2814,0,4,10
8,5,3,2,1,H,?,3,1,2438,0,4,11
8,5,4,2,1,K,N,3,1,3854,2,4,12
8,6,2,1,1,H,?,2,1,2654,0,5,13
8,6,3,1,1,K,?,2,0,4182,1,5,14
8,6,4,1,1,P,?,2,1,2870,0,5,15
8,7,2,2,1,N,?,3,0,3366,0,6,16
8,7,3,2,1,P,?,3,1,2262,0,6,17
8,7,4,2,1,F,B,3,0,2654,2,6,18
8,8,2,1,1,M,?,3,1,5222,0,7,19
8,8,3,1,1,A,?,3,0,14,0,7,20
8,8,4,1,1,J,?,3,1,2238,1,7,21
8,9,2,2,1,M,?,2,1,2374,0,8,22
8,9,3,2,1,I,O,2,0,2918,2,8,23
8,9,4,2,1,G,?,2,1,2630,0,8,24
8,10,2,2,1,C,?,3,1,2366,0,9,25
8,10,3,2,1,P,?,3,1,2158,0,9,26
8,10,4,2,1,J,D,3,1,2078,2,9,27
8,11,2,1,1,J,?,2,1,2710,0,10,28
8,11,3,1,1,M,?,2,1,2742,1,10,29
8,11,4,1,1,H,?,2,1,2339,0,10,30
8,12,2,2,1,E,J,1,1,3274,2,11,31
8,12,3,2,1,L,?,1,1,2514,0,11,32
8,12,4,2,1,M,?,1,1,2186,0,11,33
8,13,2,1,1,L,?,3,1,2658,0,12,34
8,13,3,1,1,D,?,3,1,2778,0,12,35
8,13,4,1,1,F,?,3,1,2850,1,12,36
8,14,2,2,1,D,E,1,0,3458,2,13,37
8,14,3,2,1,F,?,1,1,3566,0,13,38
8,14,4,2,1,J,?,1,1,2286,0,13,39
8,15,2,2,1,A,?,2,1,1966,0,14,40
8,15,3,2,1,K,F,2,0,3262,2,14,41
8,15,4,2,1,H,?,2,1,3134,0,14,42
8,16,2,1,1,C,?,3,1,3310,0,15,43
8,16,3,1,1,F,?,3,1,2470,0,15,44
8,16,4,1,1,K,?,3,1,2822,1,15,45
8,17,2,1,1,L,?,2,1,3422,0,16,46
8,17,3,1,1,I,?,2,1,3814,1,16,47
8,17,4,1,1,G,?,2,1,2350,0,16,48
8,1,2,2,2,O,?,2,1,2953,0,1,49
8,1,3,2,2,I,B,2,1,2785,2,1,50
8,1,4,2,2,P,?,2,0,0,0,1,51
8,2,2,1,2,M,?,1,1,3113,1,2,52
8,2,3,1,2,E,?,1,0,0,0,2,53
8,2,4,1,2,N,?,1,1,3193,0,2,54
8,3,2,1,2,A,?,2,1,2649,0,3,55
8,3,3,1,2,K,?,2,1,2289,1,3,56
8,3,4,1,2,D,?,2,1,2649,0,3,57
8,4,2,2,2,L,?,3,1,3241,0,4,58
8,4,3,2,2,N,?,3,1,2377,0,4,59
8,4,4,2,2,B,H,3,1,2273,2,4,60
8,5,2,2,2,P,?,2,1,3073,0,5,61
8,5,3,2,2,E,D,2,1,2928,2,5,62
8,5,4,2,2,K,?,2,1,3049,0,5,63
8,6,2,1,2,L,?,1,1,3216,1,6,64
8,6,3,1,2,A,?,1,1,2808,0,6,65
8,6,4,1,2,K,?,1,1,2321,0,6,66
8,7,2,2,2,A,?,3,1,2121,0,7,67
8,7,3,2,2,O,?,3,1,2281,0,7,68
8,7,4,2,2,F,H,3,1,2241,2,7,69
8,8,2,1,2,L,?,1,1,3793,1,8,70
8,8,3,1,2,E,?,1,1,2625,0,8,71
8,8,4,1,2,G,?,1,1,2737,0,8,72
8,9,2,2,2,D,?,2,1,2193,0,9,73
8,9,3,2,2,K,N,2,1,3065,2,9,74
8,9,4,2,2,M,?,2,1,2409,0,9,75
8,10,2,1,2,K,?,2,1,2433,0,10,76
8,10,3,1,2,E,?,2,1,2769,1,10,77
8,10,4,1,2,C,?,2,1,2177,0,10,78
8,11,2,2,2,L,O,1,1,2521,2,11,79
8,11,3,2,2,G,?,1,1,2369,0,11,80
8,11,4,2,2,F,?,1,1,2185,0,11,81
8,12,2,1,2,P,?,2,1,3761,0,12,82
8,12,3,1,2,I,?,2,1,3025,1,12,83
8,12,4,1,2,D,?,2,1,2545,0,12,84
8,13,2,2,2,M,L,1,1,2737,2,13,85
8,13,3,2,2,N,?,1,1,2361,0,13,86
8,13,4,2,2,C,?,1,1,2385,0,13,87
8,14,2,1,2,N,?,3,1,2105,0,14,88
8,14,3,1,2,E,?,3,1,2673,0,14,89
8,14,4,1,2,B,?,3,1,2504,1,14,90
8,15,2,1,2,D,?,3,1,2880,0,15,91
8,15,3,1,2,A,?,3,1,2337,0,15,92
8,15,4,1,2,F,?,3,1,2025,1,15,93
8,16,2,2,2,L,N,1,1,3497,2,16,94
8,16,3,2,2,K,?,1,1,2225,0,16,95
8,16,4,2,2,C,?,1,1,2353,0,16,96
9,2,2,2,1,D,?,2,1,2095,0,1,1
9,2,3,2,1,M,P,2,1,2663,2,1,2
9,2,4,2,1,J,?,2,1,3311,0,1,3
9,3,2,1,1,D,?,1,1,3231,1,2,4
9,3,3,1,1,J,?,1,1,2807,0,2,5
9,3,4,1,1,O,?,1,1,2471,0,2,6
9,4,2,1,1,E,?,1,1,4375,1,3,7
9,4,3,1,1,M,?,1,1,2487,0,3,8
9,4,4,1,1,P,?,1,1,2471,0,3,9
9,5,2,2,1,C,?,3,0,0,0,4,10
9,5,3,2,1,H,?,3,1,2279,0,4,11
9,5,4,2,1,K,N,3,1,4950,2,4,12
9,6,2,1,1,H,?,2,1,2190,0,5,13
9,6,3,1,1,K,?,2,0,0,1,5,14
9,6,4,1,1,P,?,2,0,0,0,5,15
9,7,2,2,1,N,?,3,1,2678,0,6,16
9,7,3,2,1,P,?,3,1,2350,0,6,17
9,7,4,2,1,F,B,3,1,3838,2,6,18
9,8,2,1,1,M,?,3,1,3326,0,7,19
9,8,3,1,1,A,?,3,1,2134,0,7,20
9,8,4,1,1,J,?,3,1,2374,1,7,21
9,9,2,2,1,M,?,2,1,2358,0,8,22
9,9,3,2,1,I,O,2,1,3598,2,8,23
9,9,4,2,1,G,?,2,1,2182,0,8,24
9,10,2,2,1,C,?,3,1,2438,0,9,25
9,10,3,2,1,P,?,3,1,2638,0,9,26
9,10,4,2,1,J,D,3,1,2622,2,9,27
9,11,2,1,1,J,?,2,1,1998,0,10,28
9,11,3,1,1,M,?,2,1,2486,1,10,29
9,11,4,1,1,H,?,2,1,2358,0,10,30
9,12,2,2,1,E,J,1,1,4078,2,11,31
9,12,3,2,1,L,?,1,1,2134,0,11,32
9,12,4,2,1,M,?,1,1,2094,0,11,33
9,13,2,1,1,L,?,3,1,2014,0,12,34
9,13,3,1,1,D,?,3,1,1923,0,12,35
9,13,4,1,1,F,?,3,1,2875,1,12,36
9,14,2,2,1,D,E,1,1,4651,2,13,37
9,14,3,2,1,F,?,1,1,2435,0,13,38
9,14,4,2,1,J,?,1,1,2123,0,13,39
9,15,2,2,1,A,?,2,1,2059,0,14,40
9,15,3,2,1,K,F,2,1,4091,2,14,41
9,15,4,2,1,H,?,2,1,2099,0,14,42
9,16,2,1,1,C,?,3,1,3931,0,15,43
9,16,3,1,1,F,?,3,1,2163,0,15,44
9,16,4,1,1,K,?,3,1,2067,1,15,45
9,17,2,1,1,L,?,2,0,0,0,16,46
9,17,3,1,1,I,?,2,1,3523,1,16,47
9,17,4,1,1,G,?,2,1,2299,0,16,48
9,1,2,2,2,O,?,2,1,3420,0,1,49
9,1,3,2,2,I,B,2,0,2229,2,1,50
9,1,4,2,2,P,?,2,1,3068,0,1,51
9,2,2,1,2,M,?,1,1,3204,1,2,52
9,2,3,1,2,E,?,1,1,2060,0,2,53
9,2,4,1,2,N,?,1,1,2972,0,2,54
9,3,2,1,2,A,?,2,1,2492,0,3,55
9,3,3,1,2,K,?,2,1,2460,1,3,56
9,3,4,1,2,D,?,2,0,0,0,3,57
9,4,2,2,2,L,?,3,1,2372,0,4,58
9,4,3,2,2,N,?,3,1,2284,0,4,59
9,4,4,2,2,B,H,3,1,2372,2,4,60
9,5,2,2,2,P,?,2,1,2324,0,5,61
9,5,3,2,2,E,D,2,0,2700,2,5,62
9,5,4,2,2,K,?,2,1,2012,0,5,63
9,6,2,1,2,L,?,1,1,3484,1,6,64
9,6,3,1,2,A,?,1,1,4116,0,6,65
9,6,4,1,2,K,?,1,1,2412,0,6,66
9,7,2,2,2,A,?,3,1,2060,0,7,67
9,7,3,2,2,O,?,3,1,2652,0,7,68
9,7,4,2,2,F,H,3,0,3324,2,7,69
9,8,2,1,2,L,?,1,1,2540,1,8,70
9,8,3,1,2,E,?,1,1,3331,0,8,71
9,8,4,1,2,G,?,1,1,2396,0,8,72
9,9,2,2,2,D,?,2,1,1948,0,9,73
9,9,3,2,2,K,N,2,0,2219,2,9,74
9,9,4,2,2,M,?,2,1,2067,0,9,75
9,10,2,1,2,K,?,2,1,2299,0,10,76
9,10,3,1,2,E,?,2,1,2715,1,10,77
9,10,4,1,2,C,?,2,1,3011,0,10,78
9,11,2,2,2,L,O,1,0,2491,2,11,79
9,11,3,2,2,G,?,1,1,2131,0,11,80
9,11,4,2,2,F,?,1,1,2387,0,11,81
9,12,2,1,2,P,?,2,1,2403,0,12,82
9,12,3,1,2,I,?,2,1,3655,1,12,83
9,12,4,1,2,D,?,2,1,2444,0,12,84
9,13,2,2,2,M,L,1,0,2692,2,13,85
9,13,3,2,2,N,?,1,1,2412,0,13,86
9,13,4,2,2,C,?,1,1,2204,0,13,87
9,14,2,1,2,N,?,3,1,2348,0,14,88
9,14,3,1,2,E,?,3,1,2212,0,14,89
9,14,4,1,2,B,?,3,1,2268,1,14,90
9,15,2,1,2,D,?,3,1,2260,0,15,91
9,15,3,1,2,A,?,3,1,2148,0,15,92
9,15,4,1,2,F,?,3,1,2404,1,15,93
9,16,2,2,2,L,N,1,0,2332,2,16,94
9,16,3,2,2,K,?,1,1,2324,0,16,95
9,16,4,2,2,C,?,1,0,4372,0,16,96
10,2,2,2,1,D,?,2,1,2369,0,1,1
10,2,3,2,1,M,P,2,0,3313,2,1,2
10,2,4,2,1,J,?,2,1,2442,0,1,3
10,3,2,1,1,D,?,1,1,2985,1,2,4
10,3,3,1,1,J,?,1,1,2193,0,2,5
10,3,4,1,1,O,?,1,1,2153,0,2,6
10,4,2,1,1,E,?,1,1,5033,1,3,7
10,4,3,1,1,M,?,1,1,3097,0,3,8
10,4,4,1,1,P,?,1,1,2265,0,3,9
10,5,2,2,1,C,?,3,1,3801,0,4,10
10,5,3,2,1,H,?,3,1,2153,0,4,11
10,5,4,2,1,K,N,3,0,2225,2,4,12
10,6,2,1,1,H,?,2,1,2073,0,5,13
10,6,3,1,1,K,?,2,1,2449,1,5,14
10,6,4,1,1,P,?,2,1,2465,0,5,15
10,7,2,2,1,N,?,3,1,2065,0,6,16
10,7,3,2,1,P,?,3,0,2201,0,6,17
10,7,4,2,1,F,B,3,0,2369,2,6,18
10,8,2,1,1,M,?,3,1,2697,0,7,19
10,8,3,1,1,A,?,3,1,2281,0,7,20
10,8,4,1,1,J,?,3,1,2297,1,7,21
10,9,2,2,1,M,?,2,1,2137,0,8,22
10,9,3,2,1,I,O,2,0,2361,2,8,23
10,9,4,2,1,G,?,2,1,2201,0,8,24
10,10,2,2,1,C,?,3,1,2033,0,9,25
10,10,3,2,1,P,?,3,1,3329,0,9,26
10,10,4,2,1,J,D,3,1,2057,2,9,27
10,11,2,1,1,J,?,2,1,2290,0,10,28
10,11,3,1,1,M,?,2,1,3058,1,10,29
10,11,4,1,1,H,?,2,1,2010,0,10,30
10,12,2,2,1,E,J,1,1,2194,2,11,31
10,12,3,2,1,L,?,1,1,2722,0,11,32
10,12,4,2,1,M,?,1,1,2138,0,11,33
10,13,2,1,1,L,?,3,1,2410,0,12,34
10,13,3,1,1,D,?,3,1,2386,0,12,35
10,13,4,1,1,F,?,3,1,2354,1,12,36
10,14,2,2,1,D,E,1,1,3050,2,13,37
10,14,3,2,1,F,?,1,1,2082,0,13,38
10,14,4,2,1,J,?,1,1,2242,0,13,39
10,15,2,2,1,A,?,2,1,2106,0,14,40
10,15,3,2,1,K,F,2,0,2546,2,14,41
10,15,4,2,1,H,?,2,1,2394,0,14,42
10,16,2,1,1,C,?,3,1,2690,0,15,43
10,16,3,1,1,F,?,3,1,2186,0,15,44
10,16,4,1,1,K,?,3,1,2666,1,15,45
10,17,2,1,1,L,?,2,1,2602,0,16,46
10,17,3,1,1,I,?,2,1,3842,1,16,47
10,17,4,1,1,G,?,2,1,2322,0,16,48
10,1,2,2,2,O,?,2,1,4380,0,1,49
10,1,3,2,2,I,B,2,0,0,2,1,50
10,1,4,2,2,P,?,2,1,2828,0,1,51
10,2,2,1,2,M,?,1,1,3020,1,2,52
10,2,3,1,2,E,?,1,1,3028,0,2,53
10,2,4,1,2,N,?,1,1,2492,0,2,54
10,3,2,1,2,A,?,2,1,3132,0,3,55
10,3,3,1,2,K,?,2,1,2844,1,3,56
10,3,4,1,2,D,?,2,1,2396,0,3,57
10,4,2,2,2,L,?,3,1,2572,0,4,58
10,4,3,2,2,N,?,3,1,2644,0,4,59
10,4,4,2,2,B,H,3,0,0,2,4,60
10,5,2,2,2,P,?,2,1,2180,0,5,61
10,5,3,2,2,E,D,2,0,2900,2,5,62
10,5,4,2,2,K,?,2,1,2460,0,5,63
10,6,2,1,2,L,?,1,1,2692,1,6,64
10,6,3,1,2,A,?,1,1,2364,0,6,65
10,6,4,1,2,K,?,1,1,2356,0,6,66
10,7,2,2,2,A,?,3,1,2452,0,7,67
10,7,3,2,2,O,?,3,1,3388,0,7,68
10,7,4,2,2,F,H,3,0,2964,2,7,69
10,8,2,1,2,L,?,1,1,2700,1,8,70
10,8,3,1,2,E,?,1,1,2956,0,8,71
10,8,4,1,2,G,?,1,1,2212,0,8,72
10,9,2,2,2,D,?,2,1,1996,0,9,73
10,9,3,2,2,K,N,2,0,0,2,9,74
10,9,4,2,2,M,?,2,1,2284,0,9,75
10,10,2,1,2,K,?,2,1,2444,0,10,76
10,10,3,1,2,E,?,2,1,2684,1,10,77
10,10,4,1,2,C,?,2,1,2428,0,10,78
10,11,2,2,2,L,O,1,0,0,2,11,79
10,11,3,2,2,G,?,1,1,2237,0,11,80
10,11,4,2,2,F,?,1,1,2741,0,11,81
10,12,2,1,2,P,?,2,1,2525,0,12,82
10,12,3,1,2,I,?,2,1,3917,1,12,83
10,12,4,1,2,D,?,2,1,4525,0,12,84
10,13,2,2,2,M,L,1,0,2629,2,13,85
10,13,3,2,2,N,?,1,1,2205,0,13,86
10,13,4,2,2,C,?,1,1,2349,0,13,87
10,14,2,1,2,N,?,3,1,2517,0,14,88
10,14,3,1,2,E,?,3,1,2405,0,14,89
10,14,4,1,2,B,?,3,1,3069,1,14,90
10,15,2,1,2,D,?,3,1,2244,0,15,91
10,15,3,1,2,A,?,3,1,2292,0,15,92
10,15,4,1,2,F,?,3,1,2805,1,15,93
10,16,2,2,2,L,N,1,0,0,2,16,94
10,16,3,2,2,K,?,1,1,2028,0,16,95
10,16,4,2,2,C,?,1,0,2420,0,16,96
11,2,2,2,1,D,?,2,1,2441,0,1,1
11,2,3,2,1,M,P,2,1,2553,2,1,2
11,2,4,2,1,J,?,2,1,2489,0,1,3
11,3,2,1,1,D,?,1,1,2497,1,2,4
11,3,3,1,1,J,?,1,1,2497,0,2,5
11,3,4,1,1,O,?,1,1,2209,0,2,6
11,4,2,1,1,E,?,1,0,2529,1,3,7
11,4,3,1,1,M,?,1,1,3193,0,3,8
11,4,4,1,1,P,?,1,1,2433,0,3,9
11,5,2,2,1,C,?,3,0,2833,0,4,10
11,5,3,2,1,H,?,3,1,2433,0,4,11
11,5,4,2,1,K,N,3,0,2393,2,4,12
11,6,2,1,1,H,?,2,1,2377,0,5,13
11,6,3,1,1,K,?,2,1,2769,1,5,14
11,6,4,1,1,P,?,2,1,2449,0,5,15
11,7,2,2,1,N,?,3,1,2185,0,6,16
11,7,3,2,1,P,?,3,1,2561,0,6,17
11,7,4,2,1,F,B,3,0,2521,2,6,18
11,8,2,1,1,M,?,3,1,2465,0,7,19
11,8,3,1,1,A,?,3,1,2233,0,7,20
11,8,4,1,1,J,?,3,1,2393,1,7,21
11,9,2,2,1,M,?,2,1,2449,0,8,22
11,9,3,2,1,I,O,2,0,2521,2,8,23
11,9,4,2,1,G,?,2,1,2369,0,8,24
11,10,2,2,1,C,?,3,1,2489,0,9,25
11,10,3,2,1,P,?,3,1,2421,0,9,26
11,10,4,2,1,J,D,3,0,2564,2,9,27
11,11,2,1,1,J,?,2,1,2180,0,10,28
11,11,3,1,1,M,?,2,1,2404,1,10,29
11,11,4,1,1,H,?,2,1,1868,0,10,30
11,12,2,2,1,E,J,1,1,2556,2,11,31
11,12,3,2,1,L,?,1,1,2277,0,11,32
11,12,4,2,1,M,?,1,1,2212,0,11,33
11,13,2,1,1,L,?,3,1,2212,0,12,34
11,13,3,1,1,D,?,3,1,2204,0,12,35
11,13,4,1,1,F,?,3,1,2668,1,12,36
11,14,2,2,1,D,E,1,0,2532,2,13,37
11,14,3,2,1,F,?,1,1,2221,0,13,38
11,14,4,2,1,J,?,1,1,2333,0,13,39
11,15,2,2,1,A,?,2,1,2565,0,14,40
11,15,3,2,1,K,F,2,0,2541,2,14,41
11,15,4,2,1,H,?,2,1,2381,0,14,42
11,16,2,1,1,C,?,3,1,2405,0,15,43
11,16,3,1,1,F,?,3,1,2413,0,15,44
11,16,4,1,1,K,?,3,1,2309,1,15,45
11,17,2,1,1,L,?,2,1,3525,0,16,46
11,17,3,1,1,I,?,2,1,2893,1,16,47
11,17,4,1,1,G,?,2,1,2253,0,16,48
11,1,2,2,2,O,?,2,1,2742,0,1,49
11,1,3,2,2,I,B,2,1,2726,2,1,50
11,1,4,2,2,P,?,2,1,3078,0,1,51
11,2,2,1,2,M,?,1,1,2718,1,2,52
11,2,3,1,2,E,?,1,1,2414,0,2,53
11,2,4,1,2,N,?,1,1,2397,0,2,54
11,3,2,1,2,A,?,2,1,2349,0,3,55
11,3,3,1,2,K,?,2,1,2461,1,3,56
11,3,4,1,2,D,?,2,1,2469,0,3,57
11,4,2,2,2,L,?,3,1,2413,0,4,58
11,4,3,2,2,N,?,3,1,2581,0,4,59
11,4,4,2,2,B,H,3,1,2573,2,4,60
11,5,2,2,2,P,?,2,1,2429,0,5,61
11,5,3,2,2,E,D,2,1,2221,2,5,62
11,5,4,2,2,K,?,2,1,2285,0,5,63
11,6,2,1,2,L,?,1,1,2469,1,6,64
11,6,3,1,2,A,?,1,1,2509,0,6,65
11,6,4,1,2,K,?,1,1,2245,0,6,66
11,7,2,2,2,A,?,3,1,2221,0,7,67
11,7,3,2,2,O,?,3,1,2317,0,7,68
11,7,4,2,2,F,H,3,1,2469,2,7,69
11,8,2,1,2,L,?,1,1,2621,1,8,70
11,8,3,1,2,E,?,1,1,2357,0,8,71
11,8,4,1,2,G,?,1,1,2221,0,8,72
11,9,2,2,2,D,?,2,1,2325,0,9,73
11,9,3,2,2,K,N,2,1,2309,2,9,74
11,9,4,2,2,M,?,2,1,2077,0,9,75
11,10,2,1,2,K,?,2,1,2197,0,10,76
11,10,3,1,2,E,?,2,1,2205,1,10,77
11,10,4,1,2,C,?,2,1,2349,0,10,78
11,11,2,2,2,L,O,1,1,4125,2,11,79
11,11,3,2,2,G,?,1,1,2381,0,11,80
11,11,4,2,2,F,?,1,1,2101,0,11,81
11,12,2,1,2,P,?,2,1,2446,0,12,82
11,12,3,1,2,I,?,2,1,3246,1,12,83
11,12,4,1,2,D,?,2,1,3006,0,12,84
11,13,2,2,2,M,L,1,1,2566,2,13,85
11,13,3,2,2,N,?,1,1,2246,0,13,86
11,13,4,2,2,C,?,1,1,2254,0,13,87
11,14,2,1,2,N,?,3,1,2438,0,14,88
11,14,3,1,2,E,?,3,1,2278,0,14,89
11,14,4,1,2,B,?,3,1,2278,1,14,90
11,15,2,1,2,D,?,3,1,2462,0,15,91
11,15,3,1,2,A,?,3,1,2246,0,15,92
11,15,4,1,2,F,?,3,1,2510,1,15,93
11,16,2,2,2,L,N,1,1,3126,2,16,94
11,16,3,2,2,K,?,1,1,2294,0,16,95
11,16,4,2,2,C,?,1,1,2238,0,16,96
12,2,2,2,1,D,?,2,1,2304,0,1,1
12,2,3,2,1,M,P,2,1,3897,2,1,2
12,2,4,2,1,J,?,2,1,2553,0,1,3
12,3,2,1,1,D,?,1,1,2601,1,2,4
12,3,3,1,1,J,?,1,1,2361,0,2,5
12,3,4,1,1,O,?,1,1,2177,0,2,6
12,4,2,1,1,E,?,1,1,4889,1,3,7
12,4,3,1,1,M,?,1,1,3217,0,3,8
12,4,4,1,1,P,?,1,1,2041,0,3,9
12,5,2,2,1,C,?,3,1,2177,0,4,10
12,5,3,2,1,H,?,3,1,2261,0,4,11
12,5,4,2,1,K,N,3,0,2221,2,4,12
12,6,2,1,1,H,?,2,1,2077,0,5,13
12,6,3,1,1,K,?,2,1,2821,1,5,14
12,6,4,1,1,P,?,2,1,2437,0,5,15
12,7,2,2,1,N,?,3,1,2421,0,6,16
12,7,3,2,1,P,?,3,1,2085,0,6,17
12,7,4,2,1,F,B,3,0,2229,2,6,18
12,8,2,1,1,M,?,3,0,4181,0,7,19
12,8,3,1,1,A,?,3,1,2649,0,7,20
12,8,4,1,1,J,?,3,0,5017,1,7,21
12,9,2,2,1,M,?,2,1,2305,0,8,22
12,9,3,2,1,I,O,2,0,3464,2,8,23
12,9,4,2,1,G,?,2,1,2184,0,8,24
12,10,2,2,1,C,?,3,1,2384,0,9,25
12,10,3,2,1,P,?,3,1,2488,0,9,26
12,10,4,2,1,J,D,3,0,3152,2,9,27
12,11,2,1,1,J,?,2,1,2269,0,10,28
12,11,3,1,1,M,?,2,1,2349,1,10,29
12,11,4,1,1,H,?,2,1,1989,0,10,30
12,12,2,2,1,E,J,1,0,2773,2,11,31
12,12,3,2,1,L,?,1,1,2293,0,11,32
12,12,4,2,1,M,?,1,1,2013,0,11,33
12,13,2,1,1,L,?,3,1,2005,0,12,34
12,13,3,1,1,D,?,3,1,2373,0,12,35
12,13,4,1,1,F,?,3,1,2437,1,12,36
12,14,2,2,1,D,E,1,1,3117,2,13,37
12,14,3,2,1,F,?,1,1,2725,0,13,38
12,14,4,2,1,J,?,1,1,2197,0,13,39
12,15,2,2,1,A,?,2,1,2013,0,14,40
12,15,3,2,1,K,F,2,0,3277,2,14,41
12,15,4,2,1,H,?,2,1,2101,0,14,42
12,16,2,1,1,C,?,3,1,2197,0,15,43
12,16,3,1,1,F,?,3,1,2213,0,15,44
12,16,4,1,1,K,?,3,1,2173,1,15,45
12,17,2,1,1,L,?,2,1,3541,0,16,46
12,17,3,1,1,I,?,2,0,3629,1,16,47
12,17,4,1,1,G,?,2,1,2165,0,16,48
12,1,2,2,2,O,?,2,1,3346,0,1,49
12,1,3,2,2,I,B,2,1,2786,2,1,50
12,1,4,2,2,P,?,2,1,4930,0,1,51
12,2,2,1,2,M,?,1,1,4178,1,2,52
12,2,3,1,2,E,?,1,1,2578,0,2,53
12,2,4,1,2,N,?,1,1,2338,0,2,54
12,3,2,1,2,A,?,2,1,2755,0,3,55
12,3,3,1,2,K,?,2,1,2203,1,3,56
12,3,4,1,2,D,?,2,1,2003,0,3,57
12,4,2,2,2,L,?,3,1,2315,0,4,58
12,4,3,2,2,N,?,3,1,2483,0,4,59
12,4,4,2,2,B,H,3,1,2851,2,4,60
12,5,2,2,2,P,?,2,1,2443,0,5,61
12,5,3,2,2,E,D,2,1,2083,2,5,62
12,5,4,2,2,K,?,2,1,2323,0,5,63
12,6,2,1,2,L,?,1,1,2523,1,6,64
12,6,3,1,2,A,?,1,1,2323,0,6,65
12,6,4,1,2,K,?,1,1,2411,0,6,66
12,7,2,2,2,A,?,3,1,2059,0,7,67
12,7,3,2,2,O,?,3,1,2379,0,7,68
12,7,4,2,2,F,H,3,1,3059,2,7,69
12,8,2,1,2,L,?,1,0,3027,1,8,70
12,8,3,1,2,E,?,1,1,3402,0,8,71
12,8,4,1,2,G,?,1,1,3114,0,8,72
12,9,2,2,2,D,?,2,1,2498,0,9,73
12,9,3,2,2,K,N,2,1,2538,2,9,74
12,9,4,2,2,M,?,2,1,2170,0,9,75
12,10,2,1,2,K,?,2,1,2074,0,10,76
12,10,3,1,2,E,?,2,1,2418,1,10,77
12,10,4,1,2,C,?,2,1,2434,0,10,78
12,11,2,2,2,L,O,1,1,3882,2,11,79
12,11,3,2,2,G,?,1,1,2095,0,11,80
12,11,4,2,2,F,?,1,1,2063,0,11,81
12,12,2,1,2,P,?,2,1,2695,0,12,82
12,12,3,1,2,I,?,2,1,2543,1,12,83
12,12,4,1,2,D,?,2,1,2551,0,12,84
12,13,2,2,2,M,L,1,1,3951,2,13,85
12,13,3,2,2,N,?,1,1,2167,0,13,86
12,13,4,2,2,C,?,1,1,2223,0,13,87
12,14,2,1,2,N,?,3,1,2823,0,14,88
12,14,3,1,2,E,?,3,1,2103,0,14,89
12,14,4,1,2,B,?,3,1,2391,1,14,90
12,15,2,1,2,D,?,3,1,2775,0,15,91
12,15,3,1,2,A,?,3,1,2047,0,15,92
12,15,4,1,2,F,?,3,1,2087,1,15,93
12,16,2,2,2,L,N,1,1,2527,2,16,94
12,16,3,2,2,K,?,1,1,2527,0,16,95
12,16,4,2,2,C,?,1,1,2358,0,16,96
13,2,2,2,1,D,?,2,1,2892,0,1,1
13,2,3,2,1,M,P,2,1,3700,2,1,2
13,2,4,2,1,J,?,2,1,5012,0,1,3
13,3,2,1,1,D,?,1,1,3860,1,2,4
13,3,3,1,1,J,?,1,1,3476,0,2,5
13,3,4,1,1,O,?,1,1,2916,0,2,6
13,4,2,1,1,E,?,1,0,0,1,3,7
13,4,3,1,1,M,?,1,1,2580,0,3,8
13,4,4,1,1,P,?,1,0,0,0,3,9
13,5,2,2,1,C,?,3,0,0,0,4,10
13,5,3,2,1,H,?,3,1,2436,0,4,11
13,5,4,2,1,K,N,3,1,4956,2,4,12
13,6,2,1,1,H,?,2,1,3444,0,5,13
13,6,3,1,1,K,?,2,0,5172,1,5,14
13,6,4,1,1,P,?,2,1,3284,0,5,15
13,7,2,2,1,N,?,3,0,0,0,6,16
13,7,3,2,1,P,?,3,1,2900,0,6,17
13,7,4,2,1,F,B,3,0,0,2,6,18
13,8,2,1,1,M,?,3,0,0,0,7,19
13,8,3,1,1,A,?,3,1,3476,0,7,20
13,8,4,1,1,J,?,3,1,3780,1,7,21
13,9,2,2,1,M,?,2,1,3340,0,8,22
13,9,3,2,1,I,O,2,0,4604,2,8,23
13,9,4,2,1,G,?,2,1,3524,0,8,24
13,10,2,2,1,C,?,3,1,3684,0,9,25
13,10,3,2,1,P,?,3,1,3388,0,9,26
13,10,4,2,1,J,D,3,0,0,2,9,27
13,11,2,1,1,J,?,2,1,2820,0,10,28
13,11,3,1,1,M,?,2,1,3660,1,10,29
13,11,4,1,1,H,?,2,1,2877,0,10,30
13,12,2,2,1,E,J,1,0,5325,2,11,31
13,12,3,2,1,L,?,1,1,2981,0,11,32
13,12,4,2,1,M,?,1,1,4420,0,11,33
13,13,2,1,1,L,?,3,1,2956,0,12,34
13,13,3,1,1,D,?,3,1,3972,0,12,35
13,13,4,1,1,F,?,3,1,3972,1,12,36
13,14,2,2,1,D,E,1,0,3052,2,13,37
13,14,3,2,1,F,?,1,1,3340,0,13,38
13,14,4,2,1,J,?,1,1,2980,0,13,39
13,15,2,2,1,A,?,2,1,4444,0,14,40
13,15,3,2,1,K,F,2,0,4348,2,14,41
13,15,4,2,1,H,?,2,1,3164,0,14,42
13,16,2,1,1,C,?,3,1,4820,0,15,43
13,16,3,1,1,F,?,3,1,2884,0,15,44
13,16,4,1,1,K,?,3,0,0,1,15,45
13,17,2,1,1,L,?,2,1,4500,0,16,46
13,17,3,1,1,I,?,2,1,4868,1,16,47
13,17,4,1,1,G,?,2,0,0,0,16,48
13,1,2,2,2,O,?,2,1,4745,0,1,49
13,1,3,2,2,I,B,2,0,3057,2,1,50
13,1,4,2,2,P,?,2,1,3881,0,1,51
13,2,2,1,2,M,?,1,1,4817,1,2,52
13,2,3,1,2,E,?,1,1,4425,0,2,53
13,2,4,1,2,N,?,1,0,0,0,2,54
13,3,2,1,2,A,?,2,1,2801,0,3,55
13,3,3,1,2,K,?,2,1,4729,1,3,56
13,3,4,1,2,D,?,2,1,3865,0,3,57
13,4,2,2,2,L,?,3,1,4033,0,4,58
13,4,3,2,2,N,?,3,1,4080,0,4,59
13,4,4,2,2,B,H,3,0,4664,2,4,60
13,5,2,2,2,P,?,2,1,3856,0,5,61
13,5,3,2,2,E,D,2,0,3784,2,5,62
13,5,4,2,2,K,?,2,1,3136,0,5,63
13,6,2,1,2,L,?,1,1,4056,1,6,64
13,6,3,1,2,A,?,1,0,0,0,6,65
13,6,4,1,2,K,?,1,1,3928,0,6,66
13,7,2,2,2,A,?,3,1,3984,0,7,67
13,7,3,2,2,O,?,3,1,3688,0,7,68
13,7,4,2,2,F,H,3,0,4080,2,7,69
13,8,2,1,2,L,?,1,1,4736,1,8,70
13,8,3,1,2,E,?,1,1,4728,0,8,71
13,8,4,1,2,G,?,1,0,4152,0,8,72
13,9,2,2,2,D,?,2,1,4128,0,9,73
13,9,3,2,2,K,N,2,0,4960,2,9,74
13,9,4,2,2,M,?,2,1,3488,0,9,75
13,10,2,1,2,K,?,2,1,3728,0,10,76
13,10,3,1,2,E,?,2,1,4632,1,10,77
13,10,4,1,2,C,?,2,1,4064,0,10,78
13,11,2,2,2,L,O,1,0,4776,2,11,79
13,11,3,2,2,G,?,1,0,0,0,11,80
13,11,4,2,2,F,?,1,1,3688,0,11,81
13,12,2,1,2,P,?,2,1,3368,0,12,82
13,12,3,1,2,I,?,2,1,4568,1,12,83
13,12,4,1,2,D,?,2,1,4297,0,12,84
13,13,2,2,2,M,L,1,1,4185,2,13,85
13,13,3,2,2,N,?,1,1,5449,0,13,86
13,13,4,2,2,C,?,1,1,3249,0,13,87
13,14,2,1,2,N,?,3,1,4185,0,14,88
13,14,3,1,2,E,?,3,1,2713,0,14,89
13,14,4,1,2,B,?,3,1,2793,1,14,90
13,15,2,1,2,D,?,3,1,3137,0,15,91
13,15,3,1,2,A,?,3,1,4129,0,15,92
13,15,4,1,2,F,?,3,1,3577,1,15,93
13,16,2,2,2,L,N,1,0,3945,2,16,94
13,16,3,2,2,K,?,1,1,2881,0,16,95
13,16,4,2,2,C,?,1,1,3033,0,16,96
14,2,2,2,1,D,?,2,1,2619,0,1,1
14,2,3,2,1,M,P,2,1,2579,2,1,2
14,2,4,2,1,J,?,2,1,2547,0,1,3
14,3,2,1,1,D,?,1,1,2803,1,2,4
14,3,3,1,1,J,?,1,1,2976,0,2,5
14,3,4,1,1,O,?,1,1,2584,0,2,6
14,4,2,1,1,E,?,1,0,3952,1,3,7
14,4,3,1,1,M,?,1,1,3976,0,3,8
14,4,4,1,1,P,?,1,1,3000,0,3,9
14,5,2,2,1,C,?,3,1,3320,0,4,10
14,5,3,2,1,H,?,3,1,2688,0,4,11
14,5,4,2,1,K,N,3,0,2808,2,4,12
14,6,2,1,1,H,?,2,1,2824,0,5,13
14,6,3,1,1,K,?,2,0,2952,1,5,14
14,6,4,1,1,P,?,2,0,3592,0,5,15
14,7,2,2,1,N,?,3,1,2512,0,6,16
14,7,3,2,1,P,?,3,1,3096,0,6,17
14,7,4,2,1,F,B,3,0,3312,2,6,18
14,8,2,1,1,M,?,3,0,4064,0,7,19
14,8,3,1,1,A,?,3,1,2672,0,7,20
14,8,4,1,1,J,?,3,1,3784,1,7,21
14,9,2,2,1,M,?,2,1,3160,0,8,22
14,9,3,2,1,I,O,2,0,2511,2,8,23
14,9,4,2,1,G,?,2,1,2255,0,8,24
14,10,2,2,1,C,?,3,1,2639,0,9,25
14,10,3,2,1,P,?,3,1,2839,0,9,26
14,10,4,2,1,J,D,3,0,3111,2,9,27
14,11,2,1,1,J,?,2,1,2879,0,10,28
14,11,3,1,1,M,?,2,1,3840,1,10,29
14,11,4,1,1,H,?,2,1,3147,0,10,30
14,12,2,2,1,E,J,1,0,3835,2,11,31
14,12,3,2,1,L,?,1,1,2491,0,11,32
14,12,4,2,1,M,?,1,1,2531,0,11,33
14,13,2,1,1,L,?,3,1,2731,0,12,34
14,13,3,1,1,D,?,3,1,2523,0,12,35
14,13,4,1,1,F,?,3,1,3355,1,12,36
14,14,2,2,1,D,E,1,0,2571,2,13,37
14,14,3,2,1,F,?,1,1,2611,0,13,38
14,14,4,2,1,J,?,1,1,2803,0,13,39
14,15,2,2,1,A,?,2,1,2915,0,14,40
14,15,3,2,1,K,F,2,0,2403,2,14,41
14,15,4,2,1,H,?,2,1,2571,0,14,42
14,16,2,1,1,C,?,3,1,2467,0,15,43
14,16,3,1,1,F,?,3,1,2915,0,15,44
14,16,4,1,1,K,?,3,1,2299,1,15,45
14,17,2,1,1,L,?,2,0,4588,0,16,46
14,17,3,1,1,I,?,2,1,3236,1,16,47
14,17,4,1,1,G,?,2,1,2428,0,16,48
14,1,2,2,2,O,?,2,1,3212,0,1,49
14,1,3,2,2,I,B,2,1,3156,2,1,50
14,1,4,2,2,P,?,2,1,2836,0,1,51
14,2,2,1,2,M,?,1,1,3660,1,2,52
14,2,3,1,2,E,?,1,1,4468,0,2,53
14,2,4,1,2,N,?,1,1,3612,0,2,54
14,3,2,1,2,A,?,2,1,3540,0,3,55
14,3,3,1,2,K,?,2,1,2756,1,3,56
14,3,4,1,2,D,?,2,1,2340,0,3,57
14,4,2,2,2,L,?,3,1,2852,0,4,58
14,4,3,2,2,N,?,3,1,3348,0,4,59
14,4,4,2,2,B,H,3,0,4356,2,4,60
14,5,2,2,2,P,?,2,1,2964,0,5,61
14,5,3,2,2,E,D,2,1,2828,2,5,62
14,5,4,2,2,K,?,2,0,0,0,5,63
14,6,2,1,2,L,?,1,1,3404,1,6,64
14,6,3,1,2,A,?,1,1,3356,0,6,65
14,6,4,1,2,K,?,1,1,2972,0,6,66
14,7,2,2,2,A,?,3,1,2867,0,7,67
14,7,3,2,2,O,?,3,1,4348,0,7,68
14,7,4,2,2,F,H,3,1,2580,2,7,69
14,8,2,1,2,L,?,1,1,3068,1,8,70
14,8,3,1,2,E,?,1,1,4524,0,8,71
14,8,4,1,2,G,?,1,1,2763,0,8,72
14,9,2,2,2,D,?,2,1,2412,0,9,73
14,9,3,2,2,K,N,2,1,2667,2,9,74
14,9,4,2,2,M,?,2,1,2411,0,9,75
14,10,2,1,2,K,?,2,0,0,0,10,76
14,10,3,1,2,E,?,2,1,2947,1,10,77
14,10,4,1,2,C,?,2,1,3403,0,10,78
14,11,2,2,2,L,O,1,1,2947,2,11,79
14,11,3,2,2,G,?,1,1,2220,0,11,80
14,11,4,2,2,F,?,1,1,2748,0,11,81
14,12,2,1,2,P,?,2,1,2580,0,12,82
14,12,3,1,2,I,?,2,1,3212,1,12,83
14,12,4,1,2,D,?,2,1,3428,0,12,84
14,13,2,2,2,M,L,1,0,0,2,13,85
14,13,3,2,2,N,?,1,1,4860,0,13,86
14,13,4,2,2,C,?,1,1,2964,0,13,87
14,14,2,1,2,N,?,3,1,2428,0,14,88
14,14,3,1,2,E,?,3,1,2332,0,14,89
14,14,4,1,2,B,?,3,1,2924,1,14,90
14,15,2,1,2,D,?,3,1,2868,0,15,91
14,15,3,1,2,A,?,3,1,2756,0,15,92
14,15,4,1,2,F,?,3,1,2292,1,15,93
14,16,2,2,2,L,N,1,1,2524,2,16,94
14,16,3,2,2,K,?,1,1,2228,0,16,95
14,16,4,2,2,C,?,1,1,2692,0,16,96
15,2,2,2,1,D,?,2,1,2603,0,1,1
15,2,3,2,1,M,P,2,1,2163,2,1,2
15,2,4,2,1,J,?,2,1,3011,0,1,3
15,3,2,1,1,D,?,1,0,3059,1,2,4
15,3,3,1,1,J,?,1,1,2731,0,2,5
15,3,4,1,1,O,?,1,1,2339,0,2,6
15,4,2,1,1,E,?,1,0,3379,1,3,7
15,4,3,1,1,M,?,1,1,2499,0,3,8
15,4,4,1,1,P,?,1,1,2819,0,3,9
15,5,2,2,1,C,?,3,0,3752,0,4,10
15,5,3,2,1,H,?,3,1,2912,0,4,11
15,5,4,2,1,K,N,3,0,2488,2,4,12
15,6,2,1,1,H,?,2,1,2088,0,5,13
15,6,3,1,1,K,?,2,1,2464,1,5,14
15,6,4,1,1,P,?,2,1,2176,0,5,15
15,7,2,2,1,N,?,3,1,2088,0,6,16
15,7,3,2,1,P,?,3,1,2600,0,6,17
15,7,4,2,1,F,B,3,0,2456,2,6,18
15,8,2,1,1,M,?,3,1,3360,0,7,19
15,8,3,1,1,A,?,3,1,2415,0,7,20
15,8,4,1,1,J,?,3,1,2927,1,7,21
15,9,2,2,1,M,?,2,1,2399,0,8,22
15,9,3,2,1,I,O,2,1,2479,2,8,23
15,9,4,2,1,G,?,2,1,3167,0,8,24
15,10,2,2,1,C,?,3,1,2391,0,9,25
15,10,3,2,1,P,?,3,1,2079,0,9,26
15,10,4,2,1,J,D,3,1,2895,2,9,27
15,11,2,1,1,J,?,2,1,2351,0,10,28
15,11,3,1,1,M,?,2,1,2639,1,10,29
15,11,4,1,1,H,?,2,1,2447,0,10,30
15,12,2,2,1,E,J,1,0,2911,2,11,31
15,12,3,2,1,L,?,1,1,2151,0,11,32
15,12,4,2,1,M,?,1,1,2935,0,11,33
15,13,2,1,1,L,?,3,1,3016,0,12,34
15,13,3,1,1,D,?,3,1,2256,0,12,35
15,13,4,1,1,F,?,3,1,2648,1,12,36
15,14,2,2,1,D,E,1,0,2768,2,13,37
15,14,3,2,1,F,?,1,1,2384,0,13,38
15,14,4,2,1,J,?,1,1,2184,0,13,39
15,15,2,2,1,A,?,2,1,2128,0,14,40
15,15,3,2,1,K,F,2,0,2616,2,14,41
15,15,4,2,1,H,?,2,1,2232,0,14,42
15,16,2,1,1,C,?,3,1,2415,0,15,43
15,16,3,1,1,F,?,3,1,2400,0,15,44
15,16,4,1,1,K,?,3,1,2223,1,15,45
15,17,2,1,1,L,?,2,1,2632,0,16,46
15,17,3,1,1,I,?,2,1,4063,1,16,47
15,17,4,1,1,G,?,2,1,2608,0,16,48
15,1,2,2,2,O,?,2,1,3002,0,1,49
15,1,3,2,2,I,B,2,1,3770,2,1,50
15,1,4,2,2,P,?,2,1,3050,0,1,51
15,2,2,1,2,M,?,1,1,4282,1,2,52
15,2,3,1,2,E,?,1,1,2386,0,2,53
15,2,4,1,2,N,?,1,1,2634,0,2,54
15,3,2,1,2,A,?,2,1,2578,0,3,55
15,3,3,1,2,K,?,2,1,2274,1,3,56
15,3,4,1,2,D,?,2,1,2778,0,3,57
15,4,2,2,2,L,?,3,1,2650,0,4,58
15,4,3,2,2,N,?,3,1,2487,0,4,59
15,4,4,2,2,B,H,3,1,2223,2,4,60
15,5,2,2,2,P,?,2,1,2719,0,5,61
15,5,3,2,2,E,D,2,1,3063,2,5,62
15,5,4,2,2,K,?,2,1,2119,0,5,63
15,6,2,1,2,L,?,1,1,3311,1,6,64
15,6,3,1,2,A,?,1,1,2359,0,6,65
15,6,4,1,2,K,?,1,1,2247,0,6,66
15,7,2,2,2,A,?,3,1,2039,0,7,67
15,7,3,2,2,O,?,3,1,2687,0,7,68
15,7,4,2,2,F,H,3,0,3015,2,7,69
15,8,2,1,2,L,?,1,1,2559,1,8,70
15,8,3,1,2,E,?,1,1,2998,0,8,71
15,8,4,1,2,G,?,1,1,2270,0,8,72
15,9,2,2,2,D,?,2,1,2574,0,9,73
15,9,3,2,2,K,N,2,1,3502,2,9,74
15,9,4,2,2,M,?,2,1,2214,0,9,75
15,10,2,1,2,K,?,2,1,2278,0,10,76
15,10,3,1,2,E,?,2,1,2414,1,10,77
15,10,4,1,2,C,?,2,1,2166,0,10,78
15,11,2,2,2,L,O,1,1,3142,2,11,79
15,11,3,2,2,G,?,1,1,2526,0,11,80
15,11,4,2,2,F,?,1,1,2398,0,11,81
15,12,2,1,2,P,?,2,1,2190,0,12,82
15,12,3,1,2,I,?,2,1,3439,1,12,83
15,12,4,1,2,D,?,2,1,3167,0,12,84
15,13,2,2,2,M,L,1,1,2711,2,13,85
15,13,3,2,2,N,?,1,1,3407,0,13,86
15,13,4,2,2,C,?,1,1,2255,0,13,87
15,14,2,1,2,N,?,3,1,2295,0,14,88
15,14,3,1,2,E,?,3,1,2239,0,14,89
15,14,4,1,2,B,?,3,1,2727,1,14,90
15,15,2,1,2,D,?,3,1,2679,0,15,91
15,15,3,1,2,A,?,3,1,2383,0,15,92
15,15,4,1,2,F,?,3,1,3343,1,15,93
15,16,2,2,2,L,N,1,1,3391,2,16,94
15,16,3,2,2,K,?,1,1,2303,0,16,95
15,16,4,2,2,C,?,1,1,2286,0,16,96
16,2,2,2,1,D,?,2,1,1875,0,1,1
16,2,3,2,1,M,P,2,0,2227,2,1,2
16,2,4,2,1,J,?,2,1,1411,0,1,3
16,3,2,1,1,D,?,1,1,3155,1,2,4
16,3,3,1,1,J,?,1,1,2123,0,2,5
16,3,4,1,1,O,?,1,1,2675,0,2,6
16,4,2,1,1,E,?,1,1,4403,1,3,7
16,4,3,1,1,M,?,1,1,3099,0,3,8
16,4,4,1,1,P,?,1,1,2963,0,3,9
16,5,2,2,1,C,?,3,1,2427,0,4,10
16,5,3,2,1,H,?,3,1,2027,0,4,11
16,5,4,2,1,K,N,3,0,2427,2,4,12
16,6,2,1,1,H,?,2,1,1923,0,5,13
16,6,3,1,1,K,?,2,1,3571,1,5,14
16,6,4,1,1,P,?,2,1,2163,0,5,15
16,7,2,2,1,N,?,3,1,2027,0,6,16
16,7,3,2,1,P,?,3,1,2243,0,6,17
16,7,4,2,1,F,B,3,1,3363,2,6,18
16,8,2,1,1,M,?,3,1,3363,0,7,19
16,8,3,1,1,A,?,3,1,2211,0,7,20
16,8,4,1,1,J,?,3,1,2307,1,7,21
16,9,2,2,1,M,?,2,1,2900,0,8,22
16,9,3,2,1,I,O,2,0,2276,2,8,23
16,9,4,2,1,G,?,2,1,4428,0,8,24
16,10,2,2,1,C,?,3,1,2476,0,9,25
16,10,3,2,1,P,?,3,1,3076,0,9,26
16,10,4,2,1,J,D,3,0,3436,2,9,27
16,11,2,1,1,J,?,2,1,2412,0,10,28
16,11,3,1,1,M,?,2,1,3332,1,10,29
16,11,4,1,1,H,?,2,1,2076,0,10,30
16,12,2,2,1,E,J,1,0,2756,2,11,31
16,12,3,2,1,L,?,1,0,0,0,11,32
16,12,4,2,1,M,?,1,1,1947,0,11,33
16,13,2,1,1,L,?,3,1,1884,0,12,34
16,13,3,1,1,D,?,3,1,1987,0,12,35
16,13,4,1,1,F,?,3,1,2371,1,12,36
16,14,2,2,1,D,E,1,0,3019,2,13,37
16,14,3,2,1,F,?,1,1,2955,0,13,38
16,14,4,2,1,J,?,1,1,1531,0,13,39
16,15,2,2,1,A,?,2,1,2363,0,14,40
16,15,3,2,1,K,F,2,0,2795,2,14,41
16,15,4,2,1,H,?,2,1,2147,0,14,42
16,16,2,1,1,C,?,3,1,2491,0,15,43
16,16,3,1,1,F,?,3,1,2163,0,15,44
16,16,4,1,1,K,?,3,1,2163,1,15,45
16,17,2,1,1,L,?,2,1,2275,0,16,46
16,17,3,1,1,I,?,2,1,3347,1,16,47
16,17,4,1,1,G,?,2,1,2507,0,16,48
16,1,2,2,2,O,?,2,1,3125,0,1,49
16,1,3,2,2,I,B,2,1,2709,2,1,50
16,1,4,2,2,P,?,2,1,2117,0,1,51
16,2,2,1,2,M,?,1,1,3205,1,2,52
16,2,3,1,2,E,?,1,1,2461,0,2,53
16,2,4,1,2,N,?,1,1,2781,0,2,54
16,3,2,1,2,A,?,2,1,3501,0,3,55
16,3,3,1,2,K,?,2,1,3381,1,3,56
16,3,4,1,2,D,?,2,1,3385,0,3,57
16,4,2,2,2,L,?,3,1,2297,0,4,58
16,4,3,2,2,N,?,3,1,1985,0,4,59
16,4,4,2,2,B,H,3,1,5073,2,4,60
16,5,2,2,2,P,?,2,1,3433,0,5,61
16,5,3,2,2,E,D,2,1,2657,2,5,62
16,5,4,2,2,K,?,2,1,1937,0,5,63
16,6,2,1,2,L,?,1,1,4017,1,6,64
16,6,3,1,2,A,?,1,1,2961,0,6,65
16,6,4,1,2,K,?,1,1,2585,0,6,66
16,7,2,2,2,A,?,3,1,2617,0,7,67
16,7,3,2,2,O,?,3,0,2569,0,7,68
16,7,4,2,2,F,H,3,0,0,2,7,69
16,8,2,1,2,L,?,1,1,3825,1,8,70
16,8,3,1,2,E,?,1,1,2649,0,8,71
16,8,4,1,2,G,?,1,1,3561,0,8,72
16,9,2,2,2,D,?,2,1,2018,0,9,73
16,9,3,2,2,K,N,2,1,4834,2,9,74
16,9,4,2,2,M,?,2,1,2994,0,9,75
16,10,2,1,2,K,?,2,1,3330,0,10,76
16,10,3,1,2,E,?,2,1,3778,1,10,77
16,10,4,1,2,C,?,2,1,3730,0,10,78
16,11,2,2,2,L,O,1,1,3786,2,11,79
16,11,3,2,2,G,?,1,1,2962,0,11,80
16,11,4,2,2,F,?,1,1,2186,0,11,81
16,12,2,1,2,P,?,2,1,2098,0,12,82
16,12,3,1,2,I,?,2,1,3402,1,12,83
16,12,4,1,2,D,?,2,1,2802,0,12,84
16,13,2,2,2,M,L,1,1,3994,2,13,85
16,13,3,2,2,N,?,1,1,2650,0,13,86
16,13,4,2,2,C,?,1,1,2274,0,13,87
16,14,2,1,2,N,?,3,1,2906,0,14,88
16,14,3,1,2,E,?,3,1,2450,0,14,89
16,14,4,1,2,B,?,3,1,2826,1,14,90
16,15,2,1,2,D,?,3,1,2066,0,15,91
16,15,3,1,2,A,?,3,1,2178,0,15,92
16,15,4,1,2,F,?,3,1,2514,1,15,93
16,16,2,2,2,L,N,1,1,3634,2,16,94
16,16,3,2,2,K,?,1,1,1978,0,16,95
16,16,4,2,2,C,?,1,1,2282,0,16,96
17,2,2,2,1,D,?,2,1,2567,0,1,1
17,2,3,2,1,M,P,2,0,2767,2,1,2
17,2,4,2,1,J,?,2,1,2655,0,1,3
17,3,2,1,1,D,?,1,1,2975,1,2,4
17,3,3,1,1,J,?,1,1,2527,0,2,5
17,3,4,1,1,O,?,1,1,2655,0,2,6
17,4,2,1,1,E,?,1,1,3159,1,3,7
17,4,3,1,1,M,?,1,1,2767,0,3,8
17,4,4,1,1,P,?,1,1,2455,0,3,9
17,5,2,2,1,C,?,3,1,2830,0,4,10
17,5,3,2,1,H,?,3,1,2518,0,4,11
17,5,4,2,1,K,N,3,0,2718,2,4,12
17,6,2,1,1,H,?,2,1,2382,0,5,13
17,6,3,1,1,K,?,2,1,3014,1,5,14
17,6,4,1,1,P,?,2,1,2358,0,5,15
17,7,2,2,1,N,?,3,1,2286,0,6,16
17,7,3,2,1,P,?,3,0,2462,0,6,17
17,7,4,2,1,F,B,3,0,2478,2,6,18
17,8,2,1,1,M,?,3,1,4350,0,7,19
17,8,3,1,1,A,?,3,1,2478,0,7,20
17,8,4,1,1,J,?,3,1,2510,1,7,21
17,9,2,2,1,M,?,2,1,2614,0,8,22
17,9,3,2,1,I,O,2,0,3662,2,8,23
17,9,4,2,1,G,?,2,1,3062,0,8,24
17,10,2,2,1,C,?,3,1,2558,0,9,25
17,10,3,2,1,P,?,3,1,2334,0,9,26
17,10,4,2,1,J,D,3,1,3022,2,9,27
17,11,2,1,1,J,?,2,1,2670,0,10,28
17,11,3,1,1,M,?,2,1,2390,1,10,29
17,11,4,1,1,H,?,2,1,2590,0,10,30
17,12,2,2,1,E,J,1,1,2886,2,11,31
17,12,3,2,1,L,?,1,1,2502,0,11,32
17,12,4,2,1,M,?,1,1,2390,0,11,33
17,13,2,1,1,L,?,3,1,2534,0,12,34
17,13,3,1,1,D,?,3,1,2390,0,12,35
17,13,4,1,1,F,?,3,1,3142,1,12,36
17,14,2,2,1,D,E,1,1,2910,2,13,37
17,14,3,2,1,F,?,1,1,2379,0,13,38
17,14,4,2,1,J,?,1,1,2307,0,13,39
17,15,2,2,1,A,?,2,1,2211,0,14,40
17,15,3,2,1,K,F,2,1,2771,2,14,41
17,15,4,2,1,H,?,2,1,2331,0,14,42
17,16,2,1,1,C,?,3,1,2379,0,15,43
17,16,3,1,1,F,?,3,1,2371,0,15,44
17,16,4,1,1,K,?,3,1,2435,1,15,45
17,17,2,1,1,L,?,2,1,2315,0,16,46
17,17,3,1,1,I,?,2,1,2427,1,16,47
17,17,4,1,1,G,?,2,1,2307,0,16,48
17,1,2,2,2,O,?,2,1,3173,0,1,49
17,1,3,2,2,I,B,2,1,2629,2,1,50
17,1,4,2,2,P,?,2,1,2605,0,1,51
17,2,2,1,2,M,?,1,1,2997,1,2,52
17,2,3,1,2,E,?,1,1,2457,0,2,53
17,2,4,1,2,N,?,1,1,2513,0,2,54
17,3,2,1,2,A,?,2,1,2577,0,3,55
17,3,3,1,2,K,?,2,1,2505,1,3,56
17,3,4,1,2,D,?,2,1,2817,0,3,57
17,4,2,2,2,L,?,3,1,2449,0,4,58
17,4,3,2,2,N,?,3,1,2761,0,4,59
17,4,4,2,2,B,H,3,1,2625,2,4,60
17,5,2,2,2,P,?,2,1,4577,0,5,61
17,5,3,2,2,E,D,2,1,2481,2,5,62
17,5,4,2,2,K,?,2,1,2473,0,5,63
17,6,2,1,2,L,?,1,1,2673,1,6,64
17,6,3,1,2,A,?,1,1,2601,0,6,65
17,6,4,1,2,K,?,1,1,2473,0,6,66
17,7,2,2,2,A,?,3,1,2225,0,7,67
17,7,3,2,2,O,?,3,1,3241,0,7,68
17,7,4,2,2,F,H,3,1,2562,2,7,69
17,8,2,1,2,L,?,1,1,2554,1,8,70
17,8,3,1,2,E,?,1,1,2594,0,8,71
17,8,4,1,2,G,?,1,1,2482,0,8,72
17,9,2,2,2,D,?,2,1,2450,0,9,73
17,9,3,2,2,K,N,2,1,2426,2,9,74
17,9,4,2,2,M,?,2,1,2490,0,9,75
17,10,2,1,2,K,?,2,1,2346,0,10,76
17,10,3,1,2,E,?,2,1,2761,1,10,77
17,10,4,1,2,C,?,2,1,2441,0,10,78
17,11,2,2,2,L,O,1,1,2641,2,11,79
17,11,3,2,2,G,?,1,1,2481,0,11,80
17,11,4,2,2,F,?,1,1,2465,0,11,81
17,12,2,1,2,P,?,2,1,2305,0,12,82
17,12,3,1,2,I,?,2,1,2465,1,12,83
17,12,4,1,2,D,?,2,1,2529,0,12,84
17,13,2,2,2,M,L,1,1,3329,2,13,85
17,13,3,2,2,N,?,1,1,2385,0,13,86
17,13,4,2,2,C,?,1,1,2441,0,13,87
17,14,2,1,2,N,?,3,1,2241,0,14,88
17,14,3,1,2,E,?,3,1,2481,0,14,89
17,14,4,1,2,B,?,3,1,2569,1,14,90
17,15,2,1,2,D,?,3,1,2641,0,15,91
17,15,3,1,2,A,?,3,1,2689,0,15,92
17,15,4,1,2,F,?,3,1,2641,1,15,93
17,16,2,2,2,L,N,1,1,2329,2,16,94
17,16,3,2,2,K,?,1,1,2281,0,16,95
17,16,4,2,2,C,?,1,1,2401,0,16,96
18,2,2,2,1,D,?,2,1,2586,0,1,1
18,2,3,2,1,M,P,2,0,2874,2,1,2
18,2,4,2,1,J,?,2,1,2626,0,1,3
18,3,2,1,1,D,?,1,1,3218,1,2,4
18,3,3,1,1,J,?,1,1,2650,0,2,5
18,3,4,1,1,O,?,1,1,2874,0,2,6
18,4,2,1,1,E,?,1,1,4434,1,3,7
18,4,3,1,1,M,?,1,1,2778,0,3,8
18,4,4,1,1,P,?,1,1,2426,0,3,9
18,5,2,2,1,C,?,3,1,2642,0,4,10
18,5,3,2,1,H,?,3,1,2026,0,4,11
18,5,4,2,1,K,N,3,0,0,2,4,12
18,6,2,1,1,H,?,2,1,2802,0,5,13
18,6,3,1,1,K,?,2,1,3522,1,5,14
18,6,4,1,1,P,?,2,1,2338,0,5,15
18,7,2,2,1,N,?,3,1,2138,0,6,16
18,7,3,2,1,P,?,3,1,2242,0,6,17
18,7,4,2,1,F,B,3,1,3682,2,6,18
18,8,2,1,1,M,?,3,1,2442,0,7,19
18,8,3,1,1,A,?,3,1,2458,0,7,20
18,8,4,1,1,J,?,3,1,2586,1,7,21
18,9,2,2,1,M,?,2,1,2874,0,8,22
18,9,3,2,1,I,O,2,1,3777,2,8,23
18,9,4,2,1,G,?,2,1,2561,0,8,24
18,10,2,2,1,C,?,3,1,2462,0,9,25
18,10,3,2,1,P,?,3,1,2774,0,9,26
18,10,4,2,1,J,D,3,1,2630,2,9,27
18,11,2,1,1,J,?,2,1,2286,0,10,28
18,11,3,1,1,M,?,2,1,3654,1,10,29
18,11,4,1,1,H,?,2,1,2086,0,10,30
18,12,2,2,1,E,J,1,1,3598,2,11,31
18,12,3,2,1,L,?,1,1,2814,0,11,32
18,12,4,2,1,M,?,1,1,3222,0,11,33
18,13,2,1,1,L,?,3,1,2374,0,12,34
18,13,3,1,1,D,?,3,1,2798,0,12,35
18,13,4,1,1,F,?,3,1,3942,1,12,36
18,14,2,2,1,D,E,1,1,3486,2,13,37
18,14,3,2,1,F,?,1,1,2510,0,13,38
18,14,4,2,1,J,?,1,1,2334,0,13,39
18,15,2,2,1,A,?,2,1,3182,0,14,40
18,15,3,2,1,K,F,2,1,3126,2,14,41
18,15,4,2,1,H,?,2,1,2422,0,14,42
18,16,2,1,1,C,?,3,1,3134,0,15,43
18,16,3,1,1,F,?,3,1,2294,0,15,44
18,16,4,1,1,K,?,3,1,2470,1,15,45
18,17,2,1,1,L,?,2,1,3798,0,16,46
18,17,3,1,1,I,?,2,1,3422,1,16,47
18,17,4,1,1,G,?,2,1,2198,0,16,48
18,1,2,2,2,O,?,2,1,3177,0,1,49
18,1,3,2,2,I,B,2,1,4289,2,1,50
18,1,4,2,2,P,?,2,1,3817,0,1,51
18,2,2,1,2,M,?,1,1,3241,1,2,52
18,2,3,1,2,E,?,1,1,2377,0,2,53
18,2,4,1,2,N,?,1,1,2433,0,2,54
18,3,2,1,2,A,?,2,1,2673,0,3,55
18,3,3,1,2,K,?,2,1,2417,1,3,56
18,3,4,1,2,D,?,2,1,2449,0,3,57
18,4,2,2,2,L,?,3,1,2409,0,4,58
18,4,3,2,2,N,?,3,1,3273,0,4,59
18,4,4,2,2,B,H,3,1,2082,2,4,60
18,5,2,2,2,P,?,2,1,2458,0,5,61
18,5,3,2,2,E,D,2,1,2562,2,5,62
18,5,4,2,2,K,?,2,1,2410,0,5,63
18,6,2,1,2,L,?,1,1,3745,1,6,64
18,6,3,1,2,A,?,1,1,3585,0,6,65
18,6,4,1,2,K,?,1,1,2425,0,6,66
18,7,2,2,2,A,?,3,1,2393,0,7,67
18,7,3,2,2,O,?,3,1,3873,0,7,68
18,7,4,2,2,F,H,3,1,2465,2,7,69
18,8,2,1,2,L,?,1,1,3473,1,8,70
18,8,3,1,2,E,?,1,1,3241,0,8,71
18,8,4,1,2,G,?,1,1,2289,0,8,72
18,9,2,2,2,D,?,2,1,3737,0,9,73
18,9,3,2,2,K,N,2,1,3481,2,9,74
18,9,4,2,2,M,?,2,1,2953,0,9,75
18,10,2,1,2,K,?,2,1,3673,0,10,76
18,10,3,1,2,E,?,2,1,4337,1,10,77
18,10,4,1,2,C,?,2,1,2281,0,10,78
18,11,2,2,2,L,O,1,1,4393,2,11,79
18,11,3,2,2,G,?,1,1,3465,0,11,80
18,11,4,2,2,F,?,1,1,3473,0,11,81
18,12,2,1,2,P,?,2,1,4081,0,12,82
18,12,3,1,2,I,?,2,0,2777,1,12,83
18,12,4,1,2,D,?,2,1,2529,0,12,84
18,13,2,2,2,M,L,1,1,4337,2,13,85
18,13,3,2,2,N,?,1,1,2081,0,13,86
18,13,4,2,2,C,?,1,1,2265,0,13,87
18,14,2,1,2,N,?,3,1,3385,0,14,88
18,14,3,1,2,E,?,3,1,2313,0,14,89
18,14,4,1,2,B,?,3,1,2865,1,14,90
18,15,2,1,2,D,?,3,1,2121,0,15,91
18,15,3,1,2,A,?,3,1,2441,0,15,92
18,15,4,1,2,F,?,3,1,2505,1,15,93
18,16,2,2,2,L,N,1,1,4841,2,16,94
18,16,3,2,2,K,?,1,1,2105,0,16,95
18,16,4,2,2,C,?,1,1,2273,0,16,96
19,2,2,2,1,D,?,2,1,2223,0,1,1
19,2,3,2,1,M,P,2,0,63,2,1,2
19,2,4,2,1,J,?,2,1,2479,0,1,3
19,3,2,1,1,D,?,1,1,3375,1,2,4
19,3,3,1,1,J,?,1,1,2831,0,2,5
19,3,4,1,1,O,?,1,1,2583,0,2,6
19,4,2,1,1,E,?,1,0,0,1,3,7
19,4,3,1,1,M,?,1,0,4167,0,3,8
19,4,4,1,1,P,?,1,0,2335,0,3,9
19,5,2,2,1,C,?,3,0,0,0,4,10
19,5,3,2,1,H,?,3,1,2431,0,4,11
19,5,4,2,1,K,N,3,0,3263,2,4,12
19,6,2,1,1,H,?,2,1,3311,0,5,13
19,6,3,1,1,K,?,2,1,2903,1,5,14
19,6,4,1,1,P,?,2,1,2575,0,5,15
19,7,2,2,1,N,?,3,0,0,0,6,16
19,7,3,2,1,P,?,3,0,591,0,6,17
19,7,4,2,1,F,B,3,0,2239,2,6,18
19,8,2,1,1,M,?,3,1,5215,0,7,19
19,8,3,1,1,A,?,3,1,3215,0,7,20
19,8,4,1,1,J,?,3,1,2791,1,7,21
19,9,2,2,1,M,?,2,1,3751,0,8,22
19,9,3,2,1,I,O,2,1,3831,2,8,23
19,9,4,2,1,G,?,2,1,2663,0,8,24
19,10,2,2,1,C,?,3,1,2391,0,9,25
19,10,3,2,1,P,?,3,1,2199,0,9,26
19,10,4,2,1,J,D,3,1,3079,2,9,27
19,11,2,1,1,J,?,2,1,2391,0,10,28
19,11,3,1,1,M,?,2,1,2543,1,10,29
19,11,4,1,1,H,?,2,1,4160,0,10,30
19,12,2,2,1,E,J,1,1,3784,2,11,31
19,12,3,2,1,L,?,1,1,2280,0,11,32
19,12,4,2,1,M,?,1,1,2208,0,11,33
19,13,2,1,1,L,?,3,1,3184,0,12,34
19,13,3,1,1,D,?,3,1,1920,0,12,35
19,13,4,1,1,F,?,3,1,3536,1,12,36
19,14,2,2,1,D,E,1,1,3112,2,13,37
19,14,3,2,1,F,?,1,1,2984,0,13,38
19,14,4,2,1,J,?,1,1,2048,0,13,39
19,15,2,2,1,A,?,2,1,2343,0,14,40
19,15,3,2,1,K,F,2,1,2703,2,14,41
19,15,4,2,1,H,?,2,1,2135,0,14,42
19,16,2,1,1,C,?,3,0,3783,0,15,43
19,16,3,1,1,F,?,3,1,2111,0,15,44
19,16,4,1,1,K,?,3,0,5103,1,15,45
19,17,2,1,1,L,?,2,1,5367,0,16,46
19,17,3,1,1,I,?,2,1,2535,1,16,47
19,17,4,1,1,G,?,2,1,2327,0,16,48
19,1,2,2,2,O,?,2,1,2486,0,1,49
19,1,3,2,2,I,B,2,1,2550,2,1,50
19,1,4,2,2,P,?,2,1,2814,0,1,51
19,2,2,1,2,M,?,1,1,3398,1,2,52
19,2,3,1,2,E,?,1,1,2614,0,2,53
19,2,4,1,2,N,?,1,1,2878,0,2,54
19,3,2,1,2,A,?,2,1,2198,0,3,55
19,3,3,1,2,K,?,2,1,2134,1,3,56
19,3,4,1,2,D,?,2,1,2526,0,3,57
19,4,2,2,2,L,?,3,1,2806,0,4,58
19,4,3,2,2,N,?,3,1,2390,0,4,59
19,4,4,2,2,B,H,3,1,3150,2,4,60
19,5,2,2,2,P,?,2,1,4438,0,5,61
19,5,3,2,2,E,D,2,1,1958,2,5,62
19,5,4,2,2,K,?,2,1,2502,0,5,63
19,6,2,1,2,L,?,1,1,3150,1,6,64
19,6,3,1,2,A,?,1,0,4302,0,6,65
19,6,4,1,2,K,?,1,1,2374,0,6,66
19,7,2,2,2,A,?,3,1,2534,0,7,67
19,7,3,2,2,O,?,3,1,2470,0,7,68
19,7,4,2,2,F,H,3,1,1899,2,7,69
19,8,2,1,2,L,?,1,1,2291,1,8,70
19,8,3,1,2,E,?,1,1,5211,0,8,71
19,8,4,1,2,G,?,1,1,4163,0,8,72
19,9,2,2,2,D,?,2,1,1963,0,9,73
19,9,3,2,2,K,N,2,1,2299,2,9,74
19,9,4,2,2,M,?,2,1,2147,0,9,75
19,10,2,1,2,K,?,2,1,2115,0,10,76
19,10,3,1,2,E,?,2,1,2379,1,10,77
19,10,4,1,2,C,?,2,1,2435,0,10,78
19,11,2,2,2,L,O,1,1,2715,2,11,79
19,11,3,2,2,G,?,1,1,2523,0,11,80
19,11,4,2,2,F,?,1,1,2155,0,11,81
19,12,2,1,2,P,?,2,1,2427,0,12,82
19,12,3,1,2,I,?,2,1,2987,1,12,83
19,12,4,1,2,D,?,2,1,2915,0,12,84
19,13,2,2,2,M,L,1,1,3539,2,13,85
19,13,3,2,2,N,?,1,1,2259,0,13,86
19,13,4,2,2,C,?,1,1,2323,0,13,87
19,14,2,1,2,N,?,3,1,2107,0,14,88
19,14,3,1,2,E,?,3,1,2035,0,14,89
19,14,4,1,2,B,?,3,1,2491,1,14,90
19,15,2,1,2,D,?,3,1,2259,0,15,91
19,15,3,1,2,A,?,3,1,2051,0,15,92
19,15,4,1,2,F,?,3,1,2035,1,15,93
19,16,2,2,2,L,N,1,1,2170,2,16,94
19,16,3,2,2,K,?,1,1,1994,0,16,95
19,16,4,2,2,C,?,1,1,2171,0,16,96
20,2,2,2,1,D,?,2,1,2355,0,1,1
20,2,3,2,1,M,P,2,0,2963,2,1,2
20,2,4,2,1,J,?,2,1,2979,0,1,3
20,3,2,1,1,D,?,1,1,3267,1,2,4
20,3,3,1,1,J,?,1,1,2379,0,2,5
20,3,4,1,1,O,?,1,1,2131,0,2,6
20,4,2,1,1,E,?,1,0,3883,1,3,7
20,4,3,1,1,M,?,1,0,739,0,3,8
20,4,4,1,1,P,?,1,1,2259,0,3,9
20,5,2,2,1,C,?,3,1,2307,0,4,10
20,5,3,2,1,H,?,3,1,2419,0,4,11
20,5,4,2,1,K,N,3,1,2931,2,4,12
20,6,2,1,1,H,?,2,1,2387,0,5,13
20,6,3,1,1,K,?,2,1,3075,1,5,14
20,6,4,1,1,P,?,2,1,2083,0,5,15
20,7,2,2,1,N,?,3,1,2203,0,6,16
20,7,3,2,1,P,?,3,1,2139,0,6,17
20,7,4,2,1,F,B,3,1,2059,2,6,18
20,8,2,1,1,M,?,3,1,2283,0,7,19
20,8,3,1,1,A,?,3,1,2179,0,7,20
20,8,4,1,1,J,?,3,1,2363,1,7,21
20,9,2,2,1,M,?,2,1,2043,0,8,22
20,9,3,2,1,I,O,2,1,2587,2,8,23
20,9,4,2,1,G,?,2,1,1979,0,8,24
20,10,2,2,1,C,?,3,1,2411,0,9,25
20,10,3,2,1,P,?,3,1,2476,0,9,26
20,10,4,2,1,J,D,3,1,2232,2,9,27
20,11,2,1,1,J,?,2,1,2064,0,10,28
20,11,3,1,1,M,?,2,1,3672,1,10,29
20,11,4,1,1,H,?,2,1,2704,0,10,30
20,12,2,2,1,E,J,1,1,2304,2,11,31
20,12,3,2,1,L,?,1,1,2208,0,11,32
20,12,4,2,1,M,?,1,1,2272,0,11,33
20,13,2,1,1,L,?,3,1,2136,0,12,34
20,13,3,1,1,D,?,3,1,2352,0,12,35
20,13,4,1,1,F,?,3,1,2727,1,12,36
20,14,2,2,1,D,E,1,1,3271,2,13,37
20,14,3,2,1,F,?,1,1,2087,0,13,38
20,14,4,2,1,J,?,1,1,2127,0,13,39
20,15,2,2,1,A,?,2,1,2215,0,14,40
20,15,3,2,1,K,F,2,0,2279,2,14,41
20,15,4,2,1,H,?,2,1,2375,0,14,42
20,16,2,1,1,C,?,3,1,2303,0,15,43
20,16,3,1,1,F,?,3,1,2087,0,15,44
20,16,4,1,1,K,?,3,1,3015,1,15,45
20,17,2,1,1,L,?,2,1,2471,0,16,46
20,17,3,1,1,I,?,2,1,2903,1,16,47
20,17,4,1,1,G,?,2,1,2119,0,16,48
20,1,2,2,2,O,?,2,1,3076,0,1,49
20,1,3,2,2,I,B,2,1,3020,2,1,50
20,1,4,2,2,P,?,2,1,2364,0,1,51
20,2,2,1,2,M,?,1,1,3580,1,2,52
20,2,3,1,2,E,?,1,1,2540,0,2,53
20,2,4,1,2,N,?,1,1,2164,0,2,54
20,3,2,1,2,A,?,2,1,2772,0,3,55
20,3,3,1,2,K,?,2,1,2332,1,3,56
20,3,4,1,2,D,?,2,1,2020,0,3,57
20,4,2,2,2,L,?,3,1,2324,0,4,58
20,4,3,2,2,N,?,3,1,2396,0,4,59
20,4,4,2,2,B,H,3,1,2140,2,4,60
20,5,2,2,2,P,?,2,1,2348,0,5,61
20,5,3,2,2,E,D,2,1,2140,2,5,62
20,5,4,2,2,K,?,2,1,2132,0,5,63
20,6,2,1,2,L,?,1,1,2676,1,6,64
20,6,3,1,2,A,?,1,1,2460,0,6,65
20,6,4,1,2,K,?,1,1,2132,0,6,66
20,7,2,2,2,A,?,3,1,2452,0,7,67
20,7,3,2,2,O,?,3,1,3396,0,7,68
20,7,4,2,2,F,H,3,1,2164,2,7,69
20,8,2,1,2,L,?,1,1,2836,1,8,70
20,8,3,1,2,E,?,1,1,2972,0,8,71
20,8,4,1,2,G,?,1,1,2276,0,8,72
20,9,2,2,2,D,?,2,1,3524,0,9,73
20,9,3,2,2,K,N,2,1,2436,2,9,74
20,9,4,2,2,M,?,2,1,2187,0,9,75
20,10,2,1,2,K,?,2,1,2332,0,10,76
20,10,3,1,2,E,?,2,1,2500,1,10,77
20,10,4,1,2,C,?,2,1,2356,0,10,78
20,11,2,2,2,L,O,1,1,2907,2,11,79
20,11,3,2,2,G,?,1,1,2115,0,11,80
20,11,4,2,2,F,?,1,1,1868,0,11,81
20,12,2,1,2,P,?,2,1,2195,0,12,82
20,12,3,1,2,I,?,2,1,3819,1,12,83
20,12,4,1,2,D,?,2,1,2475,0,12,84
20,13,2,2,2,M,L,1,1,3787,2,13,85
20,13,3,2,2,N,?,1,1,2283,0,13,86
20,13,4,2,2,C,?,1,1,2147,0,13,87
20,14,2,1,2,N,?,3,1,2211,0,14,88
20,14,3,1,2,E,?,3,1,2243,0,14,89
20,14,4,1,2,B,?,3,1,2396,1,14,90
20,15,2,1,2,D,?,3,1,2044,0,15,91
20,15,3,1,2,A,?,3,1,2212,0,15,92
20,15,4,1,2,F,?,3,1,2524,1,15,93
20,16,2,2,2,L,N,1,1,3012,2,16,94
20,16,3,2,2,K,?,1,1,2412,0,16,95
20,16,4,2,2,C,?,1,1,2124,0,16,96
21,2,2,2,1,D,?,2,1,2505,0,1,1
21,2,3,2,1,M,P,2,0,3337,2,1,2
21,2,4,2,1,J,?,2,1,2905,0,1,3
21,3,2,1,1,D,?,1,1,2673,1,2,4
21,3,3,1,1,J,?,1,1,2849,0,2,5
21,3,4,1,1,O,?,1,1,2393,0,2,6
21,4,2,1,1,E,?,1,1,4209,1,3,7
21,4,3,1,1,M,?,1,1,2825,0,3,8
21,4,4,1,1,P,?,1,1,2593,0,3,9
21,5,2,2,1,C,?,3,1,2272,0,4,10
21,5,3,2,1,H,?,3,1,2289,0,4,11
21,5,4,2,1,K,N,3,0,2384,2,4,12
21,6,2,1,1,H,?,2,1,2704,0,5,13
21,6,3,1,1,K,?,2,1,3560,1,5,14
21,6,4,1,1,P,?,2,1,2792,0,5,15
21,7,2,2,1,N,?,3,1,3048,0,6,16
21,7,3,2,1,P,?,3,1,2472,0,6,17
21,7,4,2,1,F,B,3,0,4136,2,6,18
21,8,2,1,1,M,?,3,0,0,0,7,19
21,8,3,1,1,A,?,3,0,312,0,7,20
21,8,4,1,1,J,?,3,1,2440,1,7,21
21,9,2,2,1,M,?,2,1,2720,0,8,22
21,9,3,2,1,I,O,2,0,2280,2,8,23
21,9,4,2,1,G,?,2,1,2400,0,8,24
21,10,2,2,1,C,?,3,1,3240,0,9,25
21,10,3,2,1,P,?,3,1,2264,0,9,26
21,10,4,2,1,J,D,3,0,3104,2,9,27
21,11,2,1,1,J,?,2,1,1992,0,10,28
21,11,3,1,1,M,?,2,1,2584,1,10,29
21,11,4,1,1,H,?,2,1,2400,0,10,30
21,12,2,2,1,E,J,1,0,2768,2,11,31
21,12,3,2,1,L,?,1,1,2221,0,11,32
21,12,4,2,1,M,?,1,1,2197,0,11,33
21,13,2,1,1,L,?,3,1,2549,0,12,34
21,13,3,1,1,D,?,3,1,2621,0,12,35
21,13,4,1,1,F,?,3,1,2981,1,12,36
21,14,2,2,1,D,E,1,1,3029,2,13,37
21,14,3,2,1,F,?,1,1,2093,0,13,38
21,14,4,2,1,J,?,1,1,2317,0,13,39
21,15,2,2,1,A,?,2,1,2365,0,14,40
21,15,3,2,1,K,F,2,0,2925,2,14,41
21,15,4,2,1,H,?,2,1,2061,0,14,42
21,16,2,1,1,C,?,3,1,3405,0,15,43
21,16,3,1,1,F,?,3,1,2341,0,15,44
21,16,4,1,1,K,?,3,1,3397,1,15,45
21,17,2,1,1,L,?,2,1,2669,0,16,46
21,17,3,1,1,I,?,2,1,3677,1,16,47
21,17,4,1,1,G,?,2,1,3845,0,16,48
21,1,2,2,2,O,?,2,1,4809,0,1,49
21,1,3,2,2,I,B,2,1,3337,2,1,50
21,1,4,2,2,P,?,2,1,3033,0,1,51
21,2,2,1,2,M,?,1,1,2873,1,2,52
21,2,3,1,2,E,?,1,1,3057,0,2,53
21,2,4,1,2,N,?,1,1,2521,0,2,54
21,3,2,1,2,A,?,2,1,2857,0,3,55
21,3,3,1,2,K,?,2,1,4753,1,3,56
21,3,4,1,2,D,?,2,0,185,0,3,57
21,4,2,2,2,L,?,3,1,3209,0,4,58
21,4,3,2,2,N,?,3,1,2993,0,4,59
21,4,4,2,2,B,H,3,1,2505,2,4,60
21,5,2,2,2,P,?,2,0,0,0,5,61
21,5,3,2,2,E,D,2,1,2865,2,5,62
21,5,4,2,2,K,?,2,1,2113,0,5,63
21,6,2,1,2,L,?,1,1,4017,1,6,64
21,6,3,1,2,A,?,1,1,2569,0,6,65
21,6,4,1,2,K,?,1,1,2945,0,6,66
21,7,2,2,2,A,?,3,1,2225,0,7,67
21,7,3,2,2,O,?,3,1,3337,0,7,68
21,7,4,2,2,F,H,3,1,2681,2,7,69
21,8,2,1,2,L,?,1,1,2793,1,8,70
21,8,3,1,2,E,?,1,1,3281,0,8,71
21,8,4,1,2,G,?,1,1,2785,0,8,72
21,9,2,2,2,D,?,2,1,2393,0,9,73
21,9,3,2,2,K,N,2,1,3960,2,9,74
21,9,4,2,2,M,?,2,1,2017,0,9,75
21,10,2,1,2,K,?,2,1,2713,0,10,76
21,10,3,1,2,E,?,2,1,4585,1,10,77
21,10,4,1,2,C,?,2,1,2313,0,10,78
21,11,2,2,2,L,O,1,1,4202,2,11,79
21,11,3,2,2,G,?,1,1,2177,0,11,80
21,11,4,2,2,F,?,1,1,2145,0,11,81
21,12,2,1,2,P,?,2,1,3049,0,12,82
21,12,3,1,2,I,?,2,1,2961,1,12,83
21,12,4,1,2,D,?,2,1,3545,0,12,84
21,13,2,2,2,M,L,1,1,4033,2,13,85
21,13,3,2,2,N,?,1,1,2209,0,13,86
21,13,4,2,2,C,?,1,1,2993,0,13,87
21,14,2,1,2,N,?,3,1,2425,0,14,88
21,14,3,1,2,E,?,3,1,2145,0,14,89
21,14,4,1,2,B,?,3,1,4657,1,14,90
21,15,2,1,2,D,?,3,1,2417,0,15,91
21,15,3,1,2,A,?,3,1,1897,0,15,92
21,15,4,1,2,F,?,3,1,3097,1,15,93
21,16,2,2,2,L,N,1,1,2945,2,16,94
21,16,3,2,2,K,?,1,1,3633,0,16,95
21,16,4,2,2,C,?,1,1,2745,0,16,96
22,2,2,2,1,D,?,2,1,2340,0,1,1
22,2,3,2,1,M,P,2,1,2508,2,1,2
22,2,4,2,1,J,?,2,1,2524,0,1,3
22,3,2,1,1,D,?,1,1,3588,1,2,4
22,3,3,1,1,J,?,1,1,2524,0,2,5
22,3,4,1,1,O,?,1,1,2348,0,2,6
22,4,2,1,1,E,?,1,1,3100,1,3,7
22,4,3,1,1,M,?,1,1,2844,0,3,8
22,4,4,1,1,P,?,1,1,2548,0,3,9
22,5,2,2,1,C,?,3,1,4612,0,4,10
22,5,3,2,1,H,?,3,1,2724,0,4,11
22,5,4,2,1,K,N,3,0,0,2,4,12
22,6,2,1,1,H,?,2,1,2716,0,5,13
22,6,3,1,1,K,?,2,0,5197,1,5,14
22,6,4,1,1,P,?,2,1,2909,0,5,15
22,7,2,2,1,N,?,3,1,2549,0,6,16
22,7,3,2,1,P,?,3,1,2261,0,6,17
22,7,4,2,1,F,B,3,1,2893,2,6,18
22,8,2,1,1,M,?,3,1,3213,0,7,19
22,8,3,1,1,A,?,3,1,2461,0,7,20
22,8,4,1,1,J,?,3,1,2733,1,7,21
22,9,2,2,1,M,?,2,1,2781,0,8,22
22,9,3,2,1,I,O,2,1,3221,2,8,23
22,9,4,2,1,G,?,2,1,2277,0,8,24
22,10,2,2,1,C,?,3,1,2861,0,9,25
22,10,3,2,1,P,?,3,1,2533,0,9,26
22,10,4,2,1,J,D,3,1,2429,2,9,27
22,11,2,1,1,J,?,2,1,2389,0,10,28
22,11,3,1,1,M,?,2,1,2109,1,10,29
22,11,4,1,1,H,?,2,1,2421,0,10,30
22,12,2,2,1,E,J,1,1,3029,2,11,31
22,12,3,2,1,L,?,1,1,2509,0,11,32
22,12,4,2,1,M,?,1,1,2213,0,11,33
22,13,2,1,1,L,?,3,1,3077,0,12,34
22,13,3,1,1,D,?,3,1,2332,0,12,35
22,13,4,1,1,F,?,3,1,2269,1,12,36
22,14,2,2,1,D,E,1,1,2172,2,13,37
22,14,3,2,1,F,?,1,1,2660,0,13,38
22,14,4,2,1,J,?,1,1,2196,0,13,39
22,15,2,2,1,A,?,2,1,2332,0,14,40
22,15,3,2,1,K,F,2,1,3212,2,14,41
22,15,4,2,1,H,?,2,1,2284,0,14,42
22,16,2,1,1,C,?,3,1,2108,0,15,43
22,16,3,1,1,F,?,3,1,2444,0,15,44
22,16,4,1,1,K,?,3,1,2556,1,15,45
22,17,2,1,1,L,?,2,1,2828,0,16,46
22,17,3,1,1,I,?,2,1,3164,1,16,47
22,17,4,1,1,G,?,2,1,2164,0,16,48
22,1,2,2,2,O,?,2,1,2774,0,1,49
22,1,3,2,2,I,B,2,1,2118,2,1,50
22,1,4,2,2,P,?,2,1,2334,0,1,51
22,2,2,1,2,M,?,1,1,2830,1,2,52
22,2,3,1,2,E,?,1,1,2886,0,2,53
22,2,4,1,2,N,?,1,1,2494,0,2,54
22,3,2,1,2,A,?,2,1,2582,0,3,55
22,3,3,1,2,K,?,2,1,2094,1,3,56
22,3,4,1,2,D,?,2,1,2351,0,3,57
22,4,2,2,2,L,?,3,1,2167,0,4,58
22,4,3,2,2,N,?,3,1,2599,0,4,59
22,4,4,2,2,B,H,3,0,4327,2,4,60
22,5,2,2,2,P,?,2,1,2631,0,5,61
22,5,3,2,2,E,D,2,1,3159,2,5,62
22,5,4,2,2,K,?,2,1,2583,0,5,63
22,6,2,1,2,L,?,1,1,3311,1,6,64
22,6,3,1,2,A,?,1,1,2799,0,6,65
22,6,4,1,2,K,?,1,1,2255,0,6,66
22,7,2,2,2,A,?,3,1,2175,0,7,67
22,7,3,2,2,O,?,3,1,3142,0,7,68
22,7,4,2,2,F,H,3,1,2311,2,7,69
22,8,2,1,2,L,?,1,1,2383,1,8,70
22,8,3,1,2,E,?,1,1,2406,0,8,71
22,8,4,1,2,G,?,1,1,2902,0,8,72
22,9,2,2,2,D,?,2,1,2022,0,9,73
22,9,3,2,2,K,N,2,1,2630,2,9,74
22,9,4,2,2,M,?,2,1,1982,0,9,75
22,10,2,1,2,K,?,2,1,2030,0,10,76
22,10,3,1,2,E,?,2,1,2782,1,10,77
22,10,4,1,2,C,?,2,1,2894,0,10,78
22,11,2,2,2,L,O,1,1,4078,2,11,79
22,11,3,2,2,G,?,1,1,3430,0,11,80
22,11,4,2,2,F,?,1,1,2214,0,11,81
22,12,2,1,2,P,?,2,1,2206,0,12,82
22,12,3,1,2,I,?,2,1,3254,1,12,83
22,12,4,1,2,D,?,2,1,2126,0,12,84
22,13,2,2,2,M,L,1,1,3910,2,13,85
22,13,3,2,2,N,?,1,1,3950,0,13,86
22,13,4,2,2,C,?,1,1,2606,0,13,87
22,14,2,1,2,N,?,3,1,3550,0,14,88
22,14,3,1,2,E,?,3,1,3278,0,14,89
22,14,4,1,2,B,?,3,1,3894,1,14,90
22,15,2,1,2,D,?,3,1,2294,0,15,91
22,15,3,1,2,A,?,3,1,2799,0,15,92
22,15,4,1,2,F,?,3,1,2751,1,15,93
22,16,2,2,2,L,N,1,1,2847,2,16,94
22,16,3,2,2,K,?,1,1,2511,0,16,95
22,16,4,2,2,C,?,1,1,2231,0,16,96
23,2,2,2,1,D,?,2,1,2381,0,1,1
23,2,3,2,1,M,P,2,1,2693,2,1,2
23,2,4,2,1,J,?,2,1,2613,0,1,3
23,3,2,1,1,D,?,1,1,2869,1,2,4
23,3,3,1,1,J,?,1,1,2317,0,2,5
23,3,4,1,1,O,?,1,1,2221,0,2,6
23,4,2,1,1,E,?,1,1,3997,1,3,7
23,4,3,1,1,M,?,1,1,2741,0,3,8
23,4,4,1,1,P,?,1,1,2189,0,3,9
23,5,2,2,1,C,?,3,1,2461,0,4,10
23,5,3,2,1,H,?,3,1,2101,0,4,11
23,5,4,2,1,K,N,3,0,2485,2,4,12
23,6,2,1,1,H,?,2,1,2181,0,5,13
23,6,3,1,1,K,?,2,0,2909,1,5,14
23,6,4,1,1,P,?,2,1,2317,0,5,15
23,7,2,2,1,N,?,3,1,2309,0,6,16
23,7,3,2,1,P,?,3,1,2469,0,6,17
23,7,4,2,1,F,B,3,0,1989,2,6,18
23,8,2,1,1,M,?,3,0,2357,0,7,19
23,8,3,1,1,A,?,3,1,2333,0,7,20
23,8,4,1,1,J,?,3,1,2165,1,7,21
23,9,2,2,1,M,?,2,1,2453,0,8,22
23,9,3,2,1,I,O,2,0,3061,2,8,23
23,9,4,2,1,G,?,2,1,1981,0,8,24
23,10,2,2,1,C,?,3,1,2349,0,9,25
23,10,3,2,1,P,?,3,1,2005,0,9,26
23,10,4,2,1,J,D,3,1,2133,2,9,27
23,11,2,1,1,J,?,2,1,2093,0,10,28
23,11,3,1,1,M,?,2,1,2357,1,10,29
23,11,4,1,1,H,?,2,1,2253,0,10,30
23,12,2,2,1,E,J,1,0,4589,2,11,31
23,12,3,2,1,L,?,1,1,2365,0,11,32
23,12,4,2,1,M,?,1,1,2413,0,11,33
23,13,2,1,1,L,?,3,1,2181,0,12,34
23,13,3,1,1,D,?,3,1,2669,0,12,35
23,13,4,1,1,F,?,3,1,2173,1,12,36
23,14,2,2,1,D,E,1,0,2549,2,13,37
23,14,3,2,1,F,?,1,1,2085,0,13,38
23,14,4,2,1,J,?,1,1,2293,0,13,39
23,15,2,2,1,A,?,2,1,2453,0,14,40
23,15,3,2,1,K,F,2,0,2405,2,14,41
23,15,4,2,1,H,?,2,1,2053,0,14,42
23,16,2,1,1,C,?,3,1,2573,0,15,43
23,16,3,1,1,F,?,3,1,2502,0,15,44
23,16,4,1,1,K,?,3,1,2285,1,15,45
23,17,2,1,1,L,?,2,1,3253,0,16,46
23,17,3,1,1,I,?,2,1,3053,1,16,47
23,17,4,1,1,G,?,2,1,3349,0,16,48
23,1,2,2,2,O,?,2,1,2411,0,1,49
23,1,3,2,2,I,B,2,0,2411,2,1,50
23,1,4,2,2,P,?,2,1,2563,0,1,51
23,2,2,1,2,M,?,1,1,3707,1,2,52
23,2,3,1,2,E,?,1,1,2171,0,2,53
23,2,4,1,2,N,?,1,1,2419,0,2,54
23,3,2,1,2,A,?,2,1,2019,0,3,55
23,3,3,1,2,K,?,2,1,3187,1,3,56
23,3,4,1,2,D,?,2,1,2196,0,3,57
23,4,2,2,2,L,?,3,1,2260,0,4,58
23,4,3,2,2,N,?,3,1,2732,0,4,59
23,4,4,2,2,B,H,3,0,3468,2,4,60
23,5,2,2,2,P,?,2,1,2284,0,5,61
23,5,3,2,2,E,D,2,0,2156,2,5,62
23,5,4,2,2,K,?,2,1,2196,0,5,63
23,6,2,1,2,L,?,1,1,3772,1,6,64
23,6,3,1,2,A,?,1,1,2748,0,6,65
23,6,4,1,2,K,?,1,1,2372,0,6,66
23,7,2,2,2,A,?,3,1,2692,0,7,67
23,7,3,2,2,O,?,3,0,2476,0,7,68
23,7,4,2,2,F,H,3,0,2148,2,7,69
23,8,2,1,2,L,?,1,1,2420,1,8,70
23,8,3,1,2,E,?,1,1,2524,0,8,71
23,8,4,1,2,G,?,1,1,2372,0,8,72
23,9,2,2,2,D,?,2,1,3052,0,9,73
23,9,3,2,2,K,N,2,1,2252,2,9,74
23,9,4,2,2,M,?,2,1,2284,0,9,75
23,10,2,1,2,K,?,2,1,1980,0,10,76
23,10,3,1,2,E,?,2,1,2156,1,10,77
23,10,4,1,2,C,?,2,1,2028,0,10,78
23,11,2,2,2,L,O,1,1,2196,2,11,79
23,11,3,2,2,G,?,1,1,2108,0,11,80
23,11,4,2,2,F,?,1,1,1964,0,11,81
23,12,2,1,2,P,?,2,1,2340,0,12,82
23,12,3,1,2,I,?,2,0,2940,1,12,83
23,12,4,1,2,D,?,2,1,4036,0,12,84
23,13,2,2,2,M,L,1,0,2939,2,13,85
23,13,3,2,2,N,?,1,1,2483,0,13,86
23,13,4,2,2,C,?,1,1,2131,0,13,87
23,14,2,1,2,N,?,3,1,2307,0,14,88
23,14,3,1,2,E,?,3,1,2427,0,14,89
23,14,4,1,2,B,?,3,1,2787,1,14,90
23,15,2,1,2,D,?,3,1,2220,0,15,91
23,15,3,1,2,A,?,3,1,3163,0,15,92
23,15,4,1,2,F,?,3,1,2860,1,15,93
23,16,2,2,2,L,N,1,1,3339,2,16,94
23,16,3,2,2,K,?,1,1,1819,0,16,95
23,16,4,2,2,C,?,1,1,2275,0,16,96
24,2,2,2,1,D,?,2,1,2469,0,1,1
24,2,3,2,1,M,P,2,0,3573,2,1,2
24,2,4,2,1,J,?,2,1,2509,0,1,3
24,3,2,1,1,D,?,1,1,3405,1,2,4
24,3,3,1,1,J,?,1,1,2230,0,2,5
24,3,4,1,1,O,?,1,1,2261,0,2,6
24,4,2,1,1,E,?,1,1,4109,1,3,7
24,4,3,1,1,M,?,1,1,2189,0,3,8
24,4,4,1,1,P,?,1,1,2305,0,3,9
24,5,2,2,1,C,?,3,1,2281,0,4,10
24,5,3,2,1,H,?,3,1,2137,0,4,11
24,5,4,2,1,K,N,3,0,2273,2,4,12
24,6,2,1,1,H,?,2,1,2033,0,5,13
24,6,3,1,1,K,?,2,1,2145,1,5,14
24,6,4,1,1,P,?,2,1,2289,0,5,15
24,7,2,2,1,N,?,3,1,2041,0,6,16
24,7,3,2,1,P,?,3,1,2049,0,6,17
24,7,4,2,1,F,B,3,0,2009,2,6,18
24,8,2,1,1,M,?,3,0,2561,0,7,19
24,8,3,1,1,A,?,3,1,2201,0,7,20
24,8,4,1,1,J,?,3,1,2185,1,7,21
24,9,2,2,1,M,?,2,1,2449,0,8,22
24,9,3,2,1,I,O,2,0,2441,2,8,23
24,9,4,2,1,G,?,2,1,2337,0,8,24
24,10,2,2,1,C,?,3,1,2105,0,9,25
24,10,3,2,1,P,?,3,1,1993,0,9,26
24,10,4,2,1,J,D,3,0,2441,2,9,27
24,11,2,1,1,J,?,2,1,2096,0,10,28
24,11,3,1,1,M,?,2,1,2960,1,10,29
24,11,4,1,1,H,?,2,1,2321,0,10,30
24,12,2,2,1,E,J,1,1,2600,2,11,31
24,12,3,2,1,L,?,1,1,2184,0,11,32
24,12,4,2,1,M,?,1,1,2065,0,11,33
24,13,2,1,1,L,?,3,1,2096,0,12,34
24,13,3,1,1,D,?,3,1,1992,0,12,35
24,13,4,1,1,F,?,3,1,2304,1,12,36
24,14,2,2,1,D,E,1,0,3176,2,13,37
24,14,3,2,1,F,?,1,1,2248,0,13,38
24,14,4,2,1,J,?,1,1,2152,0,13,39
24,15,2,2,1,A,?,2,1,2448,0,14,40
24,15,3,2,1,K,F,2,0,2321,2,14,41
24,15,4,2,1,H,?,2,1,2449,0,14,42
24,16,2,1,1,C,?,3,1,2201,0,15,43
24,16,3,1,1,F,?,3,1,2329,0,15,44
24,16,4,1,1,K,?,3,1,2353,1,15,45
24,17,2,1,1,L,?,2,1,2945,0,16,46
24,17,3,1,1,I,?,2,1,2649,1,16,47
24,17,4,1,1,G,?,2,1,2153,0,16,48
24,1,2,2,2,O,?,2,1,2609,0,1,49
24,1,3,2,2,I,B,2,1,4409,2,1,50
24,1,4,2,2,P,?,2,1,2746,0,1,51
24,2,2,1,2,M,?,1,1,3114,1,2,52
24,2,3,1,2,E,?,1,1,2274,0,2,53
24,2,4,1,2,N,?,1,1,2274,0,2,54
24,3,2,1,2,A,?,2,1,2514,0,3,55
24,3,3,1,2,K,?,2,1,2130,1,3,56
24,3,4,1,2,D,?,2,1,2450,0,3,57
24,4,2,2,2,L,?,3,1,2090,0,4,58
24,4,3,2,2,N,?,3,1,2330,0,4,59
24,4,4,2,2,B,H,3,0,0,2,4,60
24,5,2,2,2,P,?,2,1,2330,0,5,61
24,5,3,2,2,E,D,2,1,2386,2,5,62
24,5,4,2,2,K,?,2,1,2162,0,5,63
24,6,2,1,2,L,?,1,1,2666,1,6,64
24,6,3,1,2,A,?,1,1,2610,0,6,65
24,6,4,1,2,K,?,1,1,2122,0,6,66
24,7,2,2,2,A,?,3,1,1946,0,7,67
24,7,3,2,2,O,?,3,1,2090,0,7,68
24,7,4,2,2,F,H,3,1,2082,2,7,69
24,8,2,1,2,L,?,1,1,2314,1,8,70
24,8,3,1,2,E,?,1,1,2074,0,8,71
24,8,4,1,2,G,?,1,1,2018,0,8,72
24,9,2,2,2,D,?,2,1,2394,0,9,73
24,9,3,2,2,K,N,2,1,2490,2,9,74
24,9,4,2,2,M,?,2,1,2066,0,9,75
24,10,2,1,2,K,?,2,1,2057,0,10,76
24,10,3,1,2,E,?,2,1,2185,1,10,77
24,10,4,1,2,C,?,2,1,2225,0,10,78
24,11,2,2,2,L,O,1,1,1961,2,11,79
24,11,3,2,2,G,?,1,1,2137,0,11,80
24,11,4,2,2,F,?,1,1,2017,0,11,81
24,12,2,1,2,P,?,2,1,1906,0,12,82
24,12,3,1,2,I,?,2,1,2529,1,12,83
24,12,4,1,2,D,?,2,1,2041,0,12,84
24,13,2,2,2,M,L,1,1,3353,2,13,85
24,13,3,2,2,N,?,1,1,2633,0,13,86
24,13,4,2,2,C,?,1,1,2257,0,13,87
24,14,2,1,2,N,?,3,1,2905,0,14,88
24,14,3,1,2,E,?,3,1,1985,0,14,89
24,14,4,1,2,B,?,3,1,2329,1,14,90
24,15,2,1,2,D,?,3,1,2209,0,15,91
24,15,3,1,2,A,?,3,1,2241,0,15,92
24,15,4,1,2,F,?,3,1,2145,1,15,93
24,16,2,2,2,L,N,1,1,2030,2,16,94
24,16,3,2,2,K,?,1,1,2086,0,16,95
24,16,4,2,2,C,?,1,1,2182,0,16,96
25,2,2,2,1,D,?,2,1,2691,0,1,1
25,2,3,2,1,M,P,2,1,2363,2,1,2
25,2,4,2,1,J,?,2,1,2171,0,1,3
25,3,2,1,1,D,?,1,1,3163,1,2,4
25,3,3,1,1,J,?,1,1,2475,0,2,5
25,3,4,1,1,O,?,1,1,2411,0,2,6
25,4,2,1,1,E,?,1,0,4019,1,3,7
25,4,3,1,1,M,?,1,1,2283,0,3,8
25,4,4,1,1,P,?,1,1,2659,0,3,9
25,5,2,2,1,C,?,3,1,2299,0,4,10
25,5,3,2,1,H,?,3,1,2067,0,4,11
25,5,4,2,1,K,N,3,0,2283,2,4,12
25,6,2,1,1,H,?,2,1,2339,0,5,13
25,6,3,1,1,K,?,2,1,3291,1,5,14
25,6,4,1,1,P,?,2,1,2163,0,5,15
25,7,2,2,1,N,?,3,1,2323,0,6,16
25,7,3,2,1,P,?,3,1,2402,0,6,17
25,7,4,2,1,F,B,3,0,2178,2,6,18
25,8,2,1,1,M,?,3,0,4858,0,7,19
25,8,3,1,1,A,?,3,1,2530,0,7,20
25,8,4,1,1,J,?,3,0,4362,1,7,21
25,9,2,2,1,M,?,2,1,2442,0,8,22
25,9,3,2,1,I,O,2,0,2666,2,8,23
25,9,4,2,1,G,?,2,1,2170,0,8,24
25,10,2,2,1,C,?,3,1,2163,0,9,25
25,10,3,2,1,P,?,3,1,2019,0,9,26
25,10,4,2,1,J,D,3,0,2131,2,9,27
25,11,2,1,1,J,?,2,1,2027,0,10,28
25,11,3,1,1,M,?,2,1,1963,1,10,29
25,11,4,1,1,H,?,2,1,2027,0,10,30
25,12,2,2,1,E,J,1,1,3947,2,11,31
25,12,3,2,1,L,?,1,1,2451,0,11,32
25,12,4,2,1,M,?,1,1,2675,0,11,33
25,13,2,1,1,L,?,3,1,2411,0,12,34
25,13,3,1,1,D,?,3,1,1667,0,12,35
25,13,4,1,1,F,?,3,1,2379,1,12,36
25,14,2,2,1,D,E,1,1,2523,2,13,37
25,14,3,2,1,F,?,1,1,2731,0,13,38
25,14,4,2,1,J,?,1,1,2403,0,13,39
25,15,2,2,1,A,?,2,1,2059,0,14,40
25,15,3,2,1,K,F,2,0,2299,2,14,41
25,15,4,2,1,H,?,2,1,2275,0,14,42
25,16,2,1,1,C,?,3,1,2331,0,15,43
25,16,3,1,1,F,?,3,1,2275,0,15,44
25,16,4,1,1,K,?,3,1,2499,1,15,45
25,17,2,1,1,L,?,2,1,2507,0,16,46
25,17,3,1,1,I,?,2,1,3523,1,16,47
25,17,4,1,1,G,?,2,1,2259,0,16,48
25,1,2,2,2,O,?,2,1,2539,0,1,49
25,1,3,2,2,I,B,2,0,2435,2,1,50
25,1,4,2,2,P,?,2,1,3115,0,1,51
25,2,2,1,2,M,?,1,1,2243,1,2,52
25,2,3,1,2,E,?,1,1,2067,0,2,53
25,2,4,1,2,N,?,1,1,2211,0,2,54
25,3,2,1,2,A,?,2,1,2003,0,3,55
25,3,3,1,2,K,?,2,1,2675,1,3,56
25,3,4,1,2,D,?,2,1,2827,0,3,57
25,4,2,2,2,L,?,3,1,2283,0,4,58
25,4,3,2,2,N,?,3,1,2011,0,4,59
25,4,4,2,2,B,H,3,1,2635,2,4,60
25,5,2,2,2,P,?,2,1,2419,0,5,61
25,5,3,2,2,E,D,2,0,2131,2,5,62
25,5,4,2,2,K,?,2,1,2171,0,5,63
25,6,2,1,2,L,?,1,1,2427,1,6,64
25,6,3,1,2,A,?,1,1,3795,0,6,65
25,6,4,1,2,K,?,1,1,2051,0,6,66
25,7,2,2,2,A,?,3,1,2051,0,7,67
25,7,3,2,2,O,?,3,0,3203,0,7,68
25,7,4,2,2,F,H,3,0,3987,2,7,69
25,8,2,1,2,L,?,1,1,3035,1,8,70
25,8,3,1,2,E,?,1,1,2955,0,8,71
25,8,4,1,2,G,?,1,1,2411,0,8,72
25,9,2,2,2,D,?,2,1,1779,0,9,73
25,9,3,2,2,K,N,2,0,2139,2,9,74
25,9,4,2,2,M,?,2,1,2051,0,9,75
25,10,2,1,2,K,?,2,1,2104,0,10,76
25,10,3,1,2,E,?,2,1,2472,1,10,77
25,10,4,1,2,C,?,2,1,2032,0,10,78
25,11,2,2,2,L,O,1,0,2320,2,11,79
25,11,3,2,2,G,?,1,1,2024,0,11,80
25,11,4,2,2,F,?,1,1,2056,0,11,81
25,12,2,1,2,P,?,2,1,1920,0,12,82
25,12,3,1,2,I,?,2,1,2335,1,12,83
25,12,4,1,2,D,?,2,1,2296,0,12,84
25,13,2,2,2,M,L,1,1,3415,2,13,85
25,13,3,2,2,N,?,1,1,2224,0,13,86
25,13,4,2,2,C,?,1,1,1463,0,13,87
25,14,2,1,2,N,?,3,1,2207,0,14,88
25,14,3,1,2,E,?,3,1,2087,0,14,89
25,14,4,1,2,B,?,3,1,3200,1,14,90
25,15,2,1,2,D,?,3,1,2287,0,15,91
25,15,3,1,2,A,?,3,1,1975,0,15,92
25,15,4,1,2,F,?,3,1,3791,1,15,93
25,16,2,2,2,L,N,1,0,2303,2,16,94
25,16,3,2,2,K,?,1,1,1895,0,16,95
25,16,4,2,2,C,?,1,0,2055,0,16,96
26,2,2,2,1,D,?,2,1,2036,0,1,1
26,2,3,2,1,M,P,2,1,2892,2,1,2
26,2,4,2,1,J,?,2,1,2364,0,1,3
26,3,2,1,1,D,?,1,1,2460,1,2,4
26,3,3,1,1,J,?,1,1,2180,0,2,5
26,3,4,1,1,O,?,1,1,2172,0,2,6
26,4,2,1,1,E,?,1,1,3492,1,3,7
26,4,3,1,1,M,?,1,1,2140,0,3,8
26,4,4,1,1,P,?,1,1,2300,0,3,9
26,5,2,2,1,C,?,3,1,2316,0,4,10
26,5,3,2,1,H,?,3,1,2100,0,4,11
26,5,4,2,1,K,N,3,1,2620,2,4,12
26,6,2,1,1,H,?,2,1,1980,0,5,13
26,6,3,1,1,K,?,2,1,2172,1,5,14
26,6,4,1,1,P,?,2,1,1988,0,5,15
26,7,2,2,1,N,?,3,1,2636,0,6,16
26,7,3,2,1,P,?,3,1,2060,0,6,17
26,7,4,2,1,F,B,3,1,2204,2,6,18
26,8,2,1,1,M,?,3,1,2412,0,7,19
26,8,3,1,1,A,?,3,1,2116,0,7,20
26,8,4,1,1,J,?,3,1,2052,1,7,21
26,9,2,2,1,M,?,2,1,2268,0,8,22
26,9,3,2,1,I,O,2,1,3044,2,8,23
26,9,4,2,1,G,?,2,1,2148,0,8,24
26,10,2,2,1,C,?,3,1,2036,0,9,25
26,10,3,2,1,P,?,3,1,1940,0,9,26
26,10,4,2,1,J,D,3,1,2044,2,9,27
26,11,2,1,1,J,?,2,1,2092,0,10,28
26,11,3,1,1,M,?,2,1,1956,1,10,29
26,11,4,1,1,H,?,2,1,2004,0,10,30
26,12,2,2,1,E,J,1,1,2180,2,11,31
26,12,3,2,1,L,?,1,1,1996,0,11,32
26,12,4,2,1,M,?,1,1,2060,0,11,33
26,13,2,1,1,L,?,3,1,2052,0,12,34
26,13,3,1,1,D,?,3,1,1948,0,12,35
26,13,4,1,1,F,?,3,1,2060,1,12,36
26,14,2,2,1,D,E,1,1,3764,2,13,37
26,14,3,2,1,F,?,1,1,2044,0,13,38
26,14,4,2,1,J,?,1,1,2052,0,13,39
26,15,2,2,1,A,?,2,1,2204,0,14,40
26,15,3,2,1,K,F,2,1,2156,2,14,41
26,15,4,2,1,H,?,2,1,2052,0,14,42
26,16,2,1,1,C,?,3,1,2236,0,15,43
26,16,3,1,1,F,?,3,1,2028,0,15,44
26,16,4,1,1,K,?,3,1,2180,1,15,45
26,17,2,1,1,L,?,2,1,2388,0,16,46
26,17,3,1,1,I,?,2,1,2140,1,16,47
26,17,4,1,1,G,?,2,1,2084,0,16,48
26,1,2,2,2,O,?,2,1,2227,0,1,49
26,1,3,2,2,I,B,2,1,1944,2,1,50
26,1,4,2,2,P,?,2,1,2136,0,1,51
26,2,2,1,2,M,?,1,1,2320,1,2,52
26,2,3,1,2,E,?,1,1,2128,0,2,53
26,2,4,1,2,N,?,1,1,2104,0,2,54
26,3,2,1,2,A,?,2,1,2032,0,3,55
26,3,3,1,2,K,?,2,1,2000,1,3,56
26,3,4,1,2,D,?,2,1,2040,0,3,57
26,4,2,2,2,L,?,3,1,2048,0,4,58
26,4,3,2,2,N,?,3,1,2056,0,4,59
26,4,4,2,2,B,H,3,1,2168,2,4,60
26,5,2,2,2,P,?,2,1,2144,0,5,61
26,5,3,2,2,E,D,2,1,2264,2,5,62
26,5,4,2,2,K,?,2,1,2056,0,5,63
26,6,2,1,2,L,?,1,1,2536,1,6,64
26,6,3,1,2,A,?,1,1,2296,0,6,65
26,6,4,1,2,K,?,1,1,1960,0,6,66
26,7,2,2,2,A,?,3,1,1992,0,7,67
26,7,3,2,2,O,?,3,1,2152,0,7,68
26,7,4,2,2,F,H,3,1,2000,2,7,69
26,8,2,1,2,L,?,1,1,3328,1,8,70
26,8,3,1,2,E,?,1,1,2504,0,8,71
26,8,4,1,2,G,?,1,1,2120,0,8,72
26,9,2,2,2,D,?,2,1,2312,0,9,73
26,9,3,2,2,K,N,2,1,2040,2,9,74
26,9,4,2,2,M,?,2,1,1944,0,9,75
26,10,2,1,2,K,?,2,1,2024,0,10,76
26,10,3,1,2,E,?,2,1,2064,1,10,77
26,10,4,1,2,C,?,2,1,2016,0,10,78
26,11,2,2,2,L,O,1,1,1984,2,11,79
26,11,3,2,2,G,?,1,1,2096,0,11,80
26,11,4,2,2,F,?,1,1,2016,0,11,81
26,12,2,1,2,P,?,2,1,2056,0,12,82
26,12,3,1,2,I,?,2,1,2072,1,12,83
26,12,4,1,2,D,?,2,1,1952,0,12,84
26,13,2,2,2,M,L,1,1,2240,2,13,85
26,13,3,2,2,N,?,1,1,1960,0,13,86
26,13,4,2,2,C,?,1,1,2128,0,13,87
26,14,2,1,2,N,?,3,1,2096,0,14,88
26,14,3,1,2,E,?,3,1,2064,0,14,89
26,14,4,1,2,B,?,3,1,2080,1,14,90
26,15,2,1,2,D,?,3,1,2016,0,15,91
26,15,3,1,2,A,?,3,1,2024,0,15,92
26,15,4,1,2,F,?,3,1,2040,1,15,93
26,16,2,2,2,L,N,1,1,2208,2,16,94
26,16,3,2,2,K,?,1,1,2056,0,16,95
26,16,4,2,2,C,?,1,1,2096,0,16,96
27,2,2,2,1,D,?,2,1,2413,0,1,1
27,2,3,2,1,M,P,2,0,2485,2,1,2
27,2,4,2,1,J,?,2,1,2477,0,1,3
27,3,2,1,1,D,?,1,1,3653,1,2,4
27,3,3,1,1,J,?,1,1,2341,0,2,5
27,3,4,1,1,O,?,1,1,2205,0,2,6
27,4,2,1,1,E,?,1,1,4093,1,3,7
27,4,3,1,1,M,?,1,1,2205,0,3,8
27,4,4,1,1,P,?,1,1,2117,0,3,9
27,5,2,2,1,C,?,3,1,2925,0,4,10
27,5,3,2,1,H,?,3,1,2181,0,4,11
27,5,4,2,1,K,N,3,0,2437,2,4,12
27,6,2,1,1,H,?,2,1,2141,0,5,13
27,6,3,1,1,K,?,2,1,3157,1,5,14
27,6,4,1,1,P,?,2,1,2189,0,5,15
27,7,2,2,1,N,?,3,1,2461,0,6,16
27,7,3,2,1,P,?,3,1,2893,0,6,17
27,7,4,2,1,F,B,3,1,2269,2,6,18
27,8,2,1,1,M,?,3,1,2477,0,7,19
27,8,3,1,1,A,?,3,1,2677,0,7,20
27,8,4,1,1,J,?,3,1,2493,1,7,21
27,9,2,2,1,M,?,2,1,3005,0,8,22
27,9,3,2,1,I,O,2,0,4685,2,8,23
27,9,4,2,1,G,?,2,1,2053,0,8,24
27,10,2,2,1,C,?,3,1,2269,0,9,25
27,10,3,2,1,P,?,3,1,2205,0,9,26
27,10,4,2,1,J,D,3,1,2677,2,9,27
27,11,2,1,1,J,?,2,1,2149,0,10,28
27,11,3,1,1,M,?,2,1,3573,1,10,29
27,11,4,1,1,H,?,2,1,2013,0,10,30
27,12,2,2,1,E,J,1,0,3437,2,11,31
27,12,3,2,1,L,?,1,1,3117,0,11,32
27,12,4,2,1,M,?,1,1,2005,0,11,33
27,13,2,1,1,L,?,3,1,2181,0,12,34
27,13,3,1,1,D,?,3,1,1925,0,12,35
27,13,4,1,1,F,?,3,1,2925,1,12,36
27,14,2,2,1,D,E,1,1,3221,2,13,37
27,14,3,2,1,F,?,1,1,2229,0,13,38
27,14,4,2,1,J,?,1,1,2189,0,13,39
27,15,2,2,1,A,?,2,1,2541,0,14,40
27,15,3,2,1,K,F,2,0,3141,2,14,41
27,15,4,2,1,H,?,2,1,2565,0,14,42
27,16,2,1,1,C,?,3,1,2605,0,15,43
27,16,3,1,1,F,?,3,1,2141,0,15,44
27,16,4,1,1,K,?,3,1,2669,1,15,45
27,17,2,1,1,L,?,2,1,2509,0,16,46
27,17,3,1,1,I,?,2,1,3965,1,16,47
27,17,4,1,1,G,?,2,1,2229,0,16,48
27,1,2,2,2,O,?,2,1,2855,0,1,49
27,1,3,2,2,I,B,2,0,2135,2,1,50
27,1,4,2,2,P,?,2,1,2351,0,1,51
27,2,2,1,2,M,?,1,1,2847,1,2,52
27,2,3,1,2,E,?,1,1,2063,0,2,53
27,2,4,1,2,N,?,1,1,2183,0,2,54
27,3,2,1,2,A,?,2,1,2671,0,3,55
27,3,3,1,2,K,?,2,1,2167,1,3,56
27,3,4,1,2,D,?,2,1,2607,0,3,57
27,4,2,2,2,L,?,3,1,2607,0,4,58
27,4,3,2,2,N,?,3,1,2223,0,4,59
27,4,4,2,2,B,H,3,0,2431,2,4,60
27,5,2,2,2,P,?,2,1,2159,0,5,61
27,5,3,2,2,E,D,2,0,2151,2,5,62
27,5,4,2,2,K,?,2,1,2119,0,5,63
27,6,2,1,2,L,?,1,1,2951,1,6,64
27,6,3,1,2,A,?,1,1,2687,0,6,65
27,6,4,1,2,K,?,1,1,2239,0,6,66
27,7,2,2,2,A,?,3,1,2287,0,7,67
27,7,3,2,2,O,?,3,1,3383,0,7,68
27,7,4,2,2,F,H,3,0,2079,2,7,69
27,8,2,1,2,L,?,1,1,3559,1,8,70
27,8,3,1,2,E,?,1,1,2711,0,8,71
27,8,4,1,2,G,?,1,1,2255,0,8,72
27,9,2,2,2,D,?,2,1,2999,0,9,73
27,9,3,2,2,K,N,2,0,2103,2,9,74
27,9,4,2,2,M,?,2,1,2215,0,9,75
27,10,2,1,2,K,?,2,1,2071,0,10,76
27,10,3,1,2,E,?,2,1,2735,1,10,77
27,10,4,1,2,C,?,2,1,2007,0,10,78
27,11,2,2,2,L,O,1,0,2719,2,11,79
27,11,3,2,2,G,?,1,1,2039,0,11,80
27,11,4,2,2,F,?,1,1,2399,0,11,81
27,12,2,1,2,P,?,2,1,2775,0,12,82
27,12,3,1,2,I,?,2,1,2879,1,12,83
27,12,4,1,2,D,?,2,1,2471,0,12,84
27,13,2,2,2,M,L,1,1,2903,2,13,85
27,13,3,2,2,N,?,1,1,2799,0,13,86
27,13,4,2,2,C,?,1,1,2343,0,13,87
27,14,2,1,2,N,?,3,1,2335,0,14,88
27,14,3,1,2,E,?,3,1,2159,0,14,89
27,14,4,1,2,B,?,3,1,2743,1,14,90
27,15,2,1,2,D,?,3,1,2375,0,15,91
27,15,3,1,2,A,?,3,1,2127,0,15,92
27,15,4,1,2,F,?,3,1,2679,1,15,93
27,16,2,2,2,L,N,1,0,2135,2,16,94
27,16,3,2,2,K,?,1,1,2103,0,16,95
27,16,4,2,2,C,?,1,1,3583,0,16,96
28,2,2,2,1,D,?,2,1,2491,0,1,1
28,2,3,2,1,M,P,2,0,2588,2,1,2
28,2,4,2,1,J,?,2,1,2915,0,1,3
28,3,2,1,1,D,?,1,1,3619,1,2,4
28,3,3,1,1,J,?,1,1,2547,0,2,5
28,3,4,1,1,O,?,1,1,2611,0,2,6
28,4,2,1,1,E,?,1,1,5163,1,3,7
28,4,3,1,1,M,?,1,1,2579,0,3,8
28,4,4,1,1,P,?,1,1,2891,0,3,9
28,5,2,2,1,C,?,3,1,3828,0,4,10
28,5,3,2,1,H,?,3,1,2340,0,4,11
28,5,4,2,1,K,N,3,0,2420,2,4,12
28,6,2,1,1,H,?,2,1,2652,0,5,13
28,6,3,1,1,K,?,2,1,2972,1,5,14
28,6,4,1,1,P,?,2,1,2244,0,5,15
28,7,2,2,1,N,?,3,1,2428,0,6,16
28,7,3,2,1,P,?,3,1,2620,0,6,17
28,7,4,2,1,F,B,3,0,2460,2,6,18
28,8,2,1,1,M,?,3,0,0,0,7,19
28,8,3,1,1,A,?,3,1,2484,0,7,20
28,8,4,1,1,J,?,3,1,2964,1,7,21
28,9,2,2,1,M,?,2,1,2436,0,8,22
28,9,3,2,1,I,O,2,0,2780,2,8,23
28,9,4,2,1,G,?,2,1,2588,0,8,24
28,10,2,2,1,C,?,3,1,2444,0,9,25
28,10,3,2,1,P,?,3,1,2668,0,9,26
28,10,4,2,1,J,D,3,1,2652,2,9,27
28,11,2,1,1,J,?,2,1,2420,0,10,28
28,11,3,1,1,M,?,2,1,2732,1,10,29
28,11,4,1,1,H,?,2,1,2612,0,10,30
28,12,2,2,1,E,J,1,0,2524,2,11,31
28,12,3,2,1,L,?,1,1,2563,0,11,32
28,12,4,2,1,M,?,1,1,2292,0,11,33
28,13,2,1,1,L,?,3,1,2595,0,12,34
28,13,3,1,1,D,?,3,1,2251,0,12,35
28,13,4,1,1,F,?,3,1,2811,1,12,36
28,14,2,2,1,D,E,1,0,3339,2,13,37
28,14,3,2,1,F,?,1,1,2475,0,13,38
28,14,4,2,1,J,?,1,1,2507,0,13,39
28,15,2,2,1,A,?,2,1,2683,0,14,40
28,15,3,2,1,K,F,2,0,2635,2,14,41
28,15,4,2,1,H,?,2,1,2619,0,14,42
28,16,2,1,1,C,?,3,1,2436,0,15,43
28,16,3,1,1,F,?,3,1,2300,0,15,44
28,16,4,1,1,K,?,3,1,2476,1,15,45
28,17,2,1,1,L,?,2,1,3812,0,16,46
28,17,3,1,1,I,?,2,1,3092,1,16,47
28,17,4,1,1,G,?,2,1,2516,0,16,48
28,1,2,2,2,O,?,2,1,3075,0,1,49
28,1,3,2,2,I,B,2,0,0,2,1,50
28,1,4,2,2,P,?,2,1,2547,0,1,51
28,2,2,1,2,M,?,1,1,3043,1,2,52
28,2,3,1,2,E,?,1,1,2595,0,2,53
28,2,4,1,2,N,?,1,1,2891,0,2,54
28,3,2,1,2,A,?,2,1,3027,0,3,55
28,3,3,1,2,K,?,2,1,3667,1,3,56
28,3,4,1,2,D,?,2,1,2523,0,3,57
28,4,2,2,2,L,?,3,1,2411,0,4,58
28,4,3,2,2,N,?,3,1,2619,0,4,59
28,4,4,2,2,B,H,3,1,2923,2,4,60
28,5,2,2,2,P,?,2,1,2923,0,5,61
28,5,3,2,2,E,D,2,1,2579,2,5,62
28,5,4,2,2,K,?,2,1,2395,0,5,63
28,6,2,1,2,L,?,1,1,3811,1,6,64
28,6,3,1,2,A,?,1,1,2387,0,6,65
28,6,4,1,2,K,?,1,1,2299,0,6,66
28,7,2,2,2,A,?,3,1,2427,0,7,67
28,7,3,2,2,O,?,3,1,3075,0,7,68
28,7,4,2,2,F,H,3,1,3651,2,7,69
28,8,2,1,2,L,?,1,0,0,1,8,70
28,8,3,1,2,E,?,1,0,188,0,8,71
28,8,4,1,2,G,?,1,1,2324,0,8,72
28,9,2,2,2,D,?,2,1,2452,0,9,73
28,9,3,2,2,K,N,2,1,2668,2,9,74
28,9,4,2,2,M,?,2,1,2228,0,9,75
28,10,2,1,2,K,?,2,1,2347,0,10,76
28,10,3,1,2,E,?,2,1,2467,1,10,77
28,10,4,1,2,C,?,2,1,2323,0,10,78
28,11,2,2,2,L,O,1,1,2995,2,11,79
28,11,3,2,2,G,?,1,1,2491,0,11,80
28,11,4,2,2,F,?,1,1,2395,0,11,81
28,12,2,1,2,P,?,2,1,2299,0,12,82
28,12,3,1,2,I,?,2,1,2315,1,12,83
28,12,4,1,2,D,?,2,1,2555,0,12,84
28,13,2,2,2,M,L,1,1,3243,2,13,85
28,13,3,2,2,N,?,1,1,2395,0,13,86
28,13,4,2,2,C,?,1,1,2251,0,13,87
28,14,2,1,2,N,?,3,1,2771,0,14,88
28,14,3,1,2,E,?,3,1,2235,0,14,89
28,14,4,1,2,B,?,3,1,3019,1,14,90
28,15,2,1,2,D,?,3,1,2427,0,15,91
28,15,3,1,2,A,?,3,1,2275,0,15,92
28,15,4,1,2,F,?,3,1,2203,1,15,93
28,16,2,2,2,L,N,1,1,2915,2,16,94
28,16,3,2,2,K,?,1,1,2091,0,16,95
28,16,4,2,2,C,?,1,1,2371,0,16,96
29,2,2,2,1,D,?,2,1,2208,0,1,1
29,2,3,2,1,M,P,2,1,2360,2,1,2
29,2,4,2,1,J,?,2,1,2152,0,1,3
29,3,2,1,1,D,?,1,1,3152,1,2,4
29,3,3,1,1,J,?,1,1,2248,0,2,5
29,3,4,1,1,O,?,1,1,2071,0,2,6
29,4,2,1,1,E,?,1,1,3375,1,3,7
29,4,3,1,1,M,?,1,1,2296,0,3,8
29,4,4,1,1,P,?,1,1,2355,0,3,9
29,5,2,2,1,C,?,3,1,2563,0,4,10
29,5,3,2,1,H,?,3,1,2035,0,4,11
29,5,4,2,1,K,N,3,0,2627,2,4,12
29,6,2,1,1,H,?,2,1,2267,0,5,13
29,6,3,1,1,K,?,2,1,3035,1,5,14
29,6,4,1,1,P,?,2,1,2123,0,5,15
29,7,2,2,1,N,?,3,1,2171,0,6,16
29,7,3,2,1,P,?,3,1,2011,0,6,17
29,7,4,2,1,F,B,3,1,2051,2,6,18
29,8,2,1,1,M,?,3,1,2515,0,7,19
29,8,3,1,1,A,?,3,1,2083,0,7,20
29,8,4,1,1,J,?,3,1,2371,1,7,21
29,9,2,2,1,M,?,2,1,2059,0,8,22
29,9,3,2,1,I,O,2,0,4115,2,8,23
29,9,4,2,1,G,?,2,1,2123,0,8,24
29,10,2,2,1,C,?,3,1,2019,0,9,25
29,10,3,2,1,P,?,3,1,2075,0,9,26
29,10,4,2,1,J,D,3,0,2435,2,9,27
29,11,2,1,1,J,?,2,1,2091,0,10,28
29,11,3,1,1,M,?,2,1,2307,1,10,29
29,11,4,1,1,H,?,2,1,2083,0,10,30
29,12,2,2,1,E,J,1,0,2043,2,11,31
29,12,3,2,1,L,?,1,1,2211,0,11,32
29,12,4,2,1,M,?,1,1,2331,0,11,33
29,13,2,1,1,L,?,3,1,2128,0,12,34
29,13,3,1,1,D,?,3,1,2024,0,12,35
29,13,4,1,1,F,?,3,1,2080,1,12,36
29,14,2,2,1,D,E,1,0,3352,2,13,37
29,14,3,2,1,F,?,1,1,1976,0,13,38
29,14,4,2,1,J,?,1,1,2128,0,13,39
29,15,2,2,1,A,?,2,1,2136,0,14,40
29,15,3,2,1,K,F,2,1,2456,2,14,41
29,15,4,2,1,H,?,2,1,2104,0,14,42
29,16,2,1,1,C,?,3,1,2184,0,15,43
29,16,3,1,1,F,?,3,1,2152,0,15,44
29,16,4,1,1,K,?,3,1,2488,1,15,45
29,17,2,1,1,L,?,2,1,2408,0,16,46
29,17,3,1,1,I,?,2,1,2568,1,16,47
29,17,4,1,1,G,?,2,1,2416,0,16,48
29,1,2,2,2,O,?,2,1,2365,0,1,49
29,1,3,2,2,I,B,2,1,2837,2,1,50
29,1,4,2,2,P,?,2,1,2685,0,1,51
29,2,2,1,2,M,?,1,1,3693,1,2,52
29,2,3,1,2,E,?,1,1,3237,0,2,53
29,2,4,1,2,N,?,1,1,2501,0,2,54
29,3,2,1,2,A,?,2,1,2661,0,3,55
29,3,3,1,2,K,?,2,1,2318,1,3,56
29,3,4,1,2,D,?,2,1,2254,0,3,57
29,4,2,2,2,L,?,3,1,2270,0,4,58
29,4,3,2,2,N,?,3,1,2478,0,4,59
29,4,4,2,2,B,H,3,1,2862,2,4,60
29,5,2,2,2,P,?,2,1,2950,0,5,61
29,5,3,2,2,E,D,2,1,2670,2,5,62
29,5,4,2,2,K,?,2,1,1918,0,5,63
29,6,2,1,2,L,?,1,1,2718,1,6,64
29,6,3,1,2,A,?,1,1,2910,0,6,65
29,6,4,1,2,K,?,1,1,2094,0,6,66
29,7,2,2,2,A,?,3,1,2494,0,7,67
29,7,3,2,2,O,?,3,1,2246,0,7,68
29,7,4,2,2,F,H,3,1,2094,2,7,69
29,8,2,1,2,L,?,1,1,3190,1,8,70
29,8,3,1,2,E,?,1,1,2486,0,8,71
29,8,4,1,2,G,?,1,1,2230,0,8,72
29,9,2,2,2,D,?,2,1,1878,0,9,73
29,9,3,2,2,K,N,2,1,2062,2,9,74
29,9,4,2,2,M,?,2,1,1942,0,9,75
29,10,2,1,2,K,?,2,1,2142,0,10,76
29,10,3,1,2,E,?,2,1,2262,1,10,77
29,10,4,1,2,C,?,2,1,2214,0,10,78
29,11,2,2,2,L,O,1,0,2398,2,11,79
29,11,3,2,2,G,?,1,1,1998,0,11,80
29,11,4,2,2,F,?,1,1,2206,0,11,81
29,12,2,1,2,P,?,2,1,2742,0,12,82
29,12,3,1,2,I,?,2,1,2398,1,12,83
29,12,4,1,2,D,?,2,1,3078,0,12,84
29,13,2,2,2,M,L,1,1,3398,2,13,85
29,13,3,2,2,N,?,1,1,2110,0,13,86
29,13,4,2,2,C,?,1,1,2126,0,13,87
29,14,2,1,2,N,?,3,1,2214,0,14,88
29,14,3,1,2,E,?,3,1,2094,0,14,89
29,14,4,1,2,B,?,3,1,2110,1,14,90
29,15,2,1,2,D,?,3,1,2117,0,15,91
29,15,3,1,2,A,?,3,1,2325,0,15,92
29,15,4,1,2,F,?,3,1,3829,1,15,93
29,16,2,2,2,L,N,1,1,4549,2,16,94
29,16,3,2,2,K,?,1,1,2117,0,16,95
29,16,4,2,2,C,?,1,1,2045,0,16,96
30,2,2,2,1,D,?,2,1,2360,0,1,1
30,2,3,2,1,M,P,2,0,2168,2,1,2
30,2,4,2,1,J,?,2,1,2672,0,1,3
30,3,2,1,1,D,?,1,0,2512,1,2,4
30,3,3,1,1,J,?,1,0,80,0,2,5
30,3,4,1,1,O,?,1,1,2048,0,2,6
30,4,2,1,1,E,?,1,1,4743,1,3,7
30,4,3,1,1,M,?,1,1,2791,0,3,8
30,4,4,1,1,P,?,1,1,2759,0,3,9
30,5,2,2,1,C,?,3,1,3335,0,4,10
30,5,3,2,1,H,?,3,1,2055,0,4,11
30,5,4,2,1,K,N,3,0,2935,2,4,12
30,6,2,1,1,H,?,2,1,2191,0,5,13
30,6,3,1,1,K,?,2,1,3191,1,5,14
30,6,4,1,1,P,?,2,1,1940,0,5,15
30,7,2,2,1,N,?,3,1,3140,0,6,16
30,7,3,2,1,P,?,3,1,2196,0,6,17
30,7,4,2,1,F,B,3,0,2156,2,6,18
30,8,2,1,1,M,?,3,1,4380,0,7,19
30,8,3,1,1,A,?,3,1,2388,0,7,20
30,8,4,1,1,J,?,3,1,2324,1,7,21
30,9,2,2,1,M,?,2,0,0,0,8,22
30,9,3,2,1,I,O,2,0,244,2,8,23
30,9,4,2,1,G,?,2,1,2796,0,8,24
30,10,2,2,1,C,?,3,1,3108,0,9,25
30,10,3,2,1,P,?,3,1,2012,0,9,26
30,10,4,2,1,J,D,3,0,4068,2,9,27
30,11,2,1,1,J,?,2,1,2500,0,10,28
30,11,3,1,1,M,?,2,1,2444,1,10,29
30,11,4,1,1,H,?,2,1,2164,0,10,30
30,12,2,2,1,E,J,1,0,2980,2,11,31
30,12,3,2,1,L,?,1,1,2236,0,11,32
30,12,4,2,1,M,?,1,1,2452,0,11,33
30,13,2,1,1,L,?,3,1,2636,0,12,34
30,13,3,1,1,D,?,3,0,124,0,12,35
30,13,4,1,1,F,?,3,1,2268,1,12,36
30,14,2,2,1,D,E,1,1,4036,2,13,37
30,14,3,2,1,F,?,1,0,148,0,13,38
30,14,4,2,1,J,?,1,1,2300,0,13,39
30,15,2,2,1,A,?,2,1,2396,0,14,40
30,15,3,2,1,K,F,2,1,4228,2,14,41
30,15,4,2,1,H,?,2,1,2132,0,14,42
30,16,2,1,1,C,?,3,1,2020,0,15,43
30,16,3,1,1,F,?,3,1,2308,0,15,44
30,16,4,1,1,K,?,3,1,2892,1,15,45
30,17,2,1,1,L,?,2,1,2324,0,16,46
30,17,3,1,1,I,?,2,1,3260,1,16,47
30,17,4,1,1,G,?,2,1,2348,0,16,48
30,1,2,2,2,O,?,2,1,2426,0,1,49
30,1,3,2,2,I,B,2,1,4887,2,1,50
30,1,4,2,2,P,?,2,1,4183,0,1,51
30,2,2,1,2,M,?,1,1,3727,1,2,52
30,2,3,1,2,E,?,1,1,4038,0,2,53
30,2,4,1,2,N,?,1,1,2470,0,2,54
30,3,2,1,2,A,?,2,1,2518,0,3,55
30,3,3,1,2,K,?,2,1,3622,1,3,56
30,3,4,1,2,D,?,2,1,2646,0,3,57
30,4,2,2,2,L,?,3,1,2175,0,4,58
30,4,3,2,2,N,?,3,1,3022,0,4,59
30,4,4,2,2,B,H,3,0,3582,2,4,60
30,5,2,2,2,P,?,2,1,3190,0,5,61
30,5,3,2,2,E,D,2,1,3382,2,5,62
30,5,4,2,2,K,?,2,1,2278,0,5,63
30,6,2,1,2,L,?,1,1,3358,1,6,64
30,6,3,1,2,A,?,1,1,4646,0,6,65
30,6,4,1,2,K,?,1,1,2726,0,6,66
30,7,2,2,2,A,?,3,1,3022,0,7,67
30,7,3,2,2,O,?,3,0,2462,0,7,68
30,7,4,2,2,F,H,3,1,2454,2,7,69
30,8,2,1,2,L,?,1,1,3822,1,8,70
30,8,3,1,2,E,?,1,1,2942,0,8,71
30,8,4,1,2,G,?,1,1,4134,0,8,72
30,9,2,2,2,D,?,2,1,2438,0,9,73
30,9,3,2,2,K,N,2,1,2518,2,9,74
30,9,4,2,2,M,?,2,1,1990,0,9,75
30,10,2,1,2,K,?,2,1,1942,0,10,76
30,10,3,1,2,E,?,2,1,2878,1,10,77
30,10,4,1,2,C,?,2,1,2654,0,10,78
30,11,2,2,2,L,O,1,1,2742,2,11,79
30,11,3,2,2,G,?,1,1,2990,0,11,80
30,11,4,2,2,F,?,1,1,2270,0,11,81
30,12,2,1,2,P,?,2,1,2286,0,12,82
30,12,3,1,2,I,?,2,1,2598,1,12,83
30,12,4,1,2,D,?,2,1,2622,0,12,84
30,13,2,2,2,M,L,1,1,3774,2,13,85
30,13,3,2,2,N,?,1,1,2486,0,13,86
30,13,4,2,2,C,?,1,1,2150,0,13,87
30,14,2,1,2,N,?,3,1,2270,0,14,88
30,14,3,1,2,E,?,3,1,1998,0,14,89
30,14,4,1,2,B,?,3,1,2150,1,14,90
30,15,2,1,2,D,?,3,1,2022,0,15,91
30,15,3,1,2,A,?,3,1,2006,0,15,92
30,15,4,1,2,F,?,3,1,2478,1,15,93
30,16,2,2,2,L,N,1,1,3495,2,16,94
30,16,3,2,2,K,?,1,1,2678,0,16,95
30,16,4,2,2,C,?,1,1,2019,0,16,96
31,2,2,2,1,D,?,2,1,2268,0,1,1
31,2,3,2,1,M,P,2,0,2676,2,1,2
31,2,4,2,1,J,?,2,1,2460,0,1,3
31,3,2,1,1,D,?,1,1,4708,1,2,4
31,3,3,1,1,J,?,1,1,3500,0,2,5
31,3,4,1,1,O,?,1,1,2804,0,2,6
31,4,2,1,1,E,?,1,1,3852,1,3,7
31,4,3,1,1,M,?,1,1,2596,0,3,8
31,4,4,1,1,P,?,1,1,2957,0,3,9
31,5,2,2,1,C,?,3,1,2621,0,4,10
31,5,3,2,1,H,?,3,1,2869,0,4,11
31,5,4,2,1,K,N,3,0,3101,2,4,12
31,6,2,1,1,H,?,2,1,3069,0,5,13
31,6,3,1,1,K,?,2,1,3429,1,5,14
31,6,4,1,1,P,?,2,1,2749,0,5,15
31,7,2,2,1,N,?,3,1,2373,0,6,16
31,7,3,2,1,P,?,3,1,2741,0,6,17
31,7,4,2,1,F,B,3,0,2805,2,6,18
31,8,2,1,1,M,?,3,1,2853,0,7,19
31,8,3,1,1,A,?,3,1,2373,0,7,20
31,8,4,1,1,J,?,3,1,3005,1,7,21
31,9,2,2,1,M,?,2,1,2565,0,8,22
31,9,3,2,1,I,O,2,0,2253,2,8,23
31,9,4,2,1,G,?,2,1,2269,0,8,24
31,10,2,2,1,C,?,3,1,2541,0,9,25
31,10,3,2,1,P,?,3,1,2277,0,9,26
31,10,4,2,1,J,D,3,0,2861,2,9,27
31,11,2,1,1,J,?,2,1,2141,0,10,28
31,11,3,1,1,M,?,2,1,2829,1,10,29
31,11,4,1,1,H,?,2,1,2781,0,10,30
31,12,2,2,1,E,J,1,0,2197,2,11,31
31,12,3,2,1,L,?,1,1,2309,0,11,32
31,12,4,2,1,M,?,1,1,2868,0,11,33
31,13,2,1,1,L,?,3,1,2636,0,12,34
31,13,3,1,1,D,?,3,1,2484,0,12,35
31,13,4,1,1,F,?,3,1,2692,1,12,36
31,14,2,2,1,D,E,1,0,3044,2,13,37
31,14,3,2,1,F,?,1,1,3108,0,13,38
31,14,4,2,1,J,?,1,1,2404,0,13,39
31,15,2,2,1,A,?,2,1,2100,0,14,40
31,15,3,2,1,K,F,2,0,3020,2,14,41
31,15,4,2,1,H,?,2,1,2492,0,14,42
31,16,2,1,1,C,?,3,1,2812,0,15,43
31,16,3,1,1,F,?,3,1,2812,0,15,44
31,16,4,1,1,K,?,3,1,2652,1,15,45
31,17,2,1,1,L,?,2,1,2900,0,16,46
31,17,3,1,1,I,?,2,1,3549,1,16,47
31,17,4,1,1,G,?,2,1,2597,0,16,48
31,1,2,2,2,O,?,2,0,0,0,1,49
31,1,3,2,2,I,B,2,0,0,2,1,50
31,1,4,2,2,P,?,2,1,2573,0,1,51
31,2,2,1,2,M,?,1,1,3125,1,2,52
31,2,3,1,2,E,?,1,1,2285,0,2,53
31,2,4,1,2,N,?,1,1,2389,0,2,54
31,3,2,1,2,A,?,2,1,3157,0,3,55
31,3,3,1,2,K,?,2,1,2589,1,3,56
31,3,4,1,2,D,?,2,1,3069,0,3,57
31,4,2,2,2,L,?,3,1,2573,0,4,58
31,4,3,2,2,N,?,3,1,3301,0,4,59
31,4,4,2,2,B,H,3,0,3485,2,4,60
31,5,2,2,2,P,?,2,1,3222,0,5,61
31,5,3,2,2,E,D,2,1,4710,2,5,62
31,5,4,2,2,K,?,2,1,4206,0,5,63
31,6,2,1,2,L,?,1,1,3398,1,6,64
31,6,3,1,2,A,?,1,1,3574,0,6,65
31,6,4,1,2,K,?,1,1,3862,0,6,66
31,7,2,2,2,A,?,3,1,2982,0,7,67
31,7,3,2,2,O,?,3,1,3630,0,7,68
31,7,4,2,2,F,H,3,1,5134,2,7,69
31,8,2,1,2,L,?,1,1,3069,1,8,70
31,8,3,1,2,E,?,1,1,3301,0,8,71
31,8,4,1,2,G,?,1,1,2781,0,8,72
31,9,2,2,2,D,?,2,1,1917,0,9,73
31,9,3,2,2,K,N,2,1,5349,2,9,74
31,9,4,2,2,M,?,2,1,2765,0,9,75
31,10,2,1,2,K,?,2,1,3133,0,10,76
31,10,3,1,2,E,?,2,1,4301,1,10,77
31,10,4,1,2,C,?,2,1,2357,0,10,78
31,11,2,2,2,L,O,1,0,0,2,11,79
31,11,3,2,2,G,?,1,1,3069,0,11,80
31,11,4,2,2,F,?,1,1,2949,0,11,81
31,12,2,1,2,P,?,2,1,4173,0,12,82
31,12,3,1,2,I,?,2,1,4501,1,12,83
31,12,4,1,2,D,?,2,1,2813,0,12,84
31,13,2,2,2,M,L,1,0,0,2,13,85
31,13,3,2,2,N,?,1,1,3645,0,13,86
31,13,4,2,2,C,?,1,1,2469,0,13,87
31,14,2,1,2,N,?,3,1,2917,0,14,88
31,14,3,1,2,E,?,3,1,2325,0,14,89
31,14,4,1,2,B,?,3,1,3989,1,14,90
31,15,2,1,2,D,?,3,1,3285,0,15,91
31,15,3,1,2,A,?,3,1,2669,0,15,92
31,15,4,1,2,F,?,3,1,2621,1,15,93
31,16,2,2,2,L,N,1,1,4357,2,16,94
31,16,3,2,2,K,?,1,1,3109,0,16,95
31,16,4,2,2,C,?,1,1,3813,0,16,96
32,2,2,2,1,D,?,2,1,2311,0,1,1
32,2,3,2,1,M,P,2,0,3351,2,1,2
32,2,4,2,1,J,?,2,1,2343,0,1,3
32,3,2,1,1,D,?,1,1,2783,1,2,4
32,3,3,1,1,J,?,1,1,2423,0,2,5
32,3,4,1,1,O,?,1,1,2831,0,2,6
32,4,2,1,1,E,?,1,1,4735,1,3,7
32,4,3,1,1,M,?,1,1,2303,0,3,8
32,4,4,1,1,P,?,1,1,2583,0,3,9
32,5,2,2,1,C,?,3,1,2511,0,4,10
32,5,3,2,1,H,?,3,1,2535,0,4,11
32,5,4,2,1,K,N,3,0,2327,2,4,12
32,6,2,1,1,H,?,2,1,2359,0,5,13
32,6,3,1,1,K,?,2,1,4079,1,5,14
32,6,4,1,1,P,?,2,1,2319,0,5,15
32,7,2,2,1,N,?,3,1,2319,0,6,16
32,7,3,2,1,P,?,3,1,2175,0,6,17
32,7,4,2,1,F,B,3,1,2807,2,6,18
32,8,2,1,1,M,?,3,1,2896,0,7,19
32,8,3,1,1,A,?,3,1,2176,0,7,20
32,8,4,1,1,J,?,3,1,2760,1,7,21
32,9,2,2,1,M,?,2,1,2720,0,8,22
32,9,3,2,1,I,O,2,0,4784,2,8,23
32,9,4,2,1,G,?,2,1,2640,0,8,24
32,10,2,2,1,C,?,3,1,2656,0,9,25
32,10,3,2,1,P,?,3,1,2400,0,9,26
32,10,4,2,1,J,D,3,1,2720,2,9,27
32,11,2,1,1,J,?,2,1,2208,0,10,28
32,11,3,1,1,M,?,2,1,3031,1,10,29
32,11,4,1,1,H,?,2,1,2615,0,10,30
32,12,2,2,1,E,J,1,0,0,2,11,31
32,12,3,2,1,L,?,1,1,2407,0,11,32
32,12,4,2,1,M,?,1,1,2183,0,11,33
32,13,2,1,1,L,?,3,1,2231,0,12,34
32,13,3,1,1,D,?,3,1,2679,0,12,35
32,13,4,1,1,F,?,3,1,2263,1,12,36
32,14,2,2,1,D,E,1,1,5079,2,13,37
32,14,3,2,1,F,?,1,1,2863,0,13,38
32,14,4,2,1,J,?,1,1,2719,0,13,39
32,15,2,2,1,A,?,2,1,2335,0,14,40
32,15,3,2,1,K,F,2,1,2535,2,14,41
32,15,4,2,1,H,?,2,1,2495,0,14,42
32,16,2,1,1,C,?,3,1,2727,0,15,43
32,16,3,1,1,F,?,3,1,2671,0,15,44
32,16,4,1,1,K,?,3,1,2343,1,15,45
32,17,2,1,1,L,?,2,1,2631,0,16,46
32,17,3,1,1,I,?,2,1,3263,1,16,47
32,17,4,1,1,G,?,2,1,2399,0,16,48
32,1,2,2,2,O,?,2,1,3340,0,1,49
32,1,3,2,2,I,B,2,1,3116,2,1,50
32,1,4,2,2,P,?,2,1,2572,0,1,51
32,2,2,1,2,M,?,1,1,2820,1,2,52
32,2,3,1,2,E,?,1,1,2452,0,2,53
32,2,4,1,2,N,?,1,1,2468,0,2,54
32,3,2,1,2,A,?,2,1,2236,0,3,55
32,3,3,1,2,K,?,2,1,2188,1,3,56
32,3,4,1,2,D,?,2,1,2228,0,3,57
32,4,2,2,2,L,?,3,1,2164,0,4,58
32,4,3,2,2,N,?,3,1,2324,0,4,59
32,4,4,2,2,B,H,3,1,2644,2,4,60
32,5,2,2,2,P,?,2,1,2348,0,5,61
32,5,3,2,2,E,D,2,1,2636,2,5,62
32,5,4,2,2,K,?,2,1,2500,0,5,63
32,6,2,1,2,L,?,1,1,2892,1,6,64
32,6,3,1,2,A,?,1,1,2436,0,6,65
32,6,4,1,2,K,?,1,1,2236,0,6,66
32,7,2,2,2,A,?,3,1,2076,0,7,67
32,7,3,2,2,O,?,3,1,2260,0,7,68
32,7,4,2,2,F,H,3,1,2361,2,7,69
32,8,2,1,2,L,?,1,1,2433,1,8,70
32,8,3,1,2,E,?,1,1,2753,0,8,71
32,8,4,1,2,G,?,1,1,2201,0,8,72
32,9,2,2,2,D,?,2,1,2105,0,9,73
32,9,3,2,2,K,N,2,1,2929,2,9,74
32,9,4,2,2,M,?,2,1,2401,0,9,75
32,10,2,1,2,K,?,2,1,2169,0,10,76
32,10,3,1,2,E,?,2,1,2569,1,10,77
32,10,4,1,2,C,?,2,1,2104,0,10,78
32,11,2,2,2,L,O,1,1,2480,2,11,79
32,11,3,2,2,G,?,1,1,2680,0,11,80
32,11,4,2,2,F,?,1,1,2440,0,11,81
32,12,2,1,2,P,?,2,1,2432,0,12,82
32,12,3,1,2,I,?,2,1,2568,1,12,83
32,12,4,1,2,D,?,2,1,4464,0,12,84
32,13,2,2,2,M,L,1,1,2600,2,13,85
32,13,3,2,2,N,?,1,1,2352,0,13,86
32,13,4,2,2,C,?,1,1,2496,0,13,87
32,14,2,1,2,N,?,3,1,2264,0,14,88
32,14,3,1,2,E,?,3,1,2440,0,14,89
32,14,4,1,2,B,?,3,1,2680,1,14,90
32,15,2,1,2,D,?,3,1,2392,0,15,91
32,15,3,1,2,A,?,3,1,2736,0,15,92
32,15,4,1,2,F,?,3,1,2664,1,15,93
32,16,2,2,2,L,N,1,1,3840,2,16,94
32,16,3,2,2,K,?,1,1,3224,0,16,95
32,16,4,2,2,C,?,1,1,2776,0,16,96
33,2,2,2,1,D,?,2,1,2558,0,1,1
33,2,3,2,1,M,P,2,0,2678,2,1,2
33,2,4,2,1,J,?,2,1,2342,0,1,3
33,3,2,1,1,D,?,1,1,3238,1,2,4
33,3,3,1,1,J,?,1,1,2190,0,2,5
33,3,4,1,1,O,?,1,1,2342,0,2,6
33,4,2,1,1,E,?,1,1,3710,1,3,7
33,4,3,1,1,M,?,1,1,2454,0,3,8
33,4,4,1,1,P,?,1,1,2422,0,3,9
33,5,2,2,1,C,?,3,1,2774,0,4,10
33,5,3,2,1,H,?,3,1,2430,0,4,11
33,5,4,2,1,K,N,3,0,2134,2,4,12
33,6,2,1,1,H,?,2,1,2102,0,5,13
33,6,3,1,1,K,?,2,1,2398,1,5,14
33,6,4,1,1,P,?,2,1,2054,0,5,15
33,7,2,2,1,N,?,3,1,2950,0,6,16
33,7,3,2,1,P,?,3,1,2214,0,6,17
33,7,4,2,1,F,B,3,0,2237,2,6,18
33,8,2,1,1,M,?,3,1,2237,0,7,19
33,8,3,1,1,A,?,3,1,2198,0,7,20
33,8,4,1,1,J,?,3,1,2205,1,7,21
33,9,2,2,1,M,?,2,0,4789,0,8,22
33,9,3,2,1,I,O,2,0,2221,2,8,23
33,9,4,2,1,G,?,2,1,2653,0,8,24
33,10,2,2,1,C,?,3,1,2189,0,9,25
33,10,3,2,1,P,?,3,1,2181,0,9,26
33,10,4,2,1,J,D,3,1,2405,2,9,27
33,11,2,1,1,J,?,2,1,2141,0,10,28
33,11,3,1,1,M,?,2,1,2014,1,10,29
33,11,4,1,1,H,?,2,1,2446,0,10,30
33,12,2,2,1,E,J,1,0,2958,2,11,31
33,12,3,2,1,L,?,1,1,1934,0,11,32
33,12,4,2,1,M,?,1,1,2294,0,11,33
33,13,2,1,1,L,?,3,1,2390,0,12,34
33,13,3,1,1,D,?,3,1,2414,0,12,35
33,13,4,1,1,F,?,3,1,2486,1,12,36
33,14,2,2,1,D,E,1,1,3766,2,13,37
33,14,3,2,1,F,?,1,1,2390,0,13,38
33,14,4,2,1,J,?,1,1,2230,0,13,39
33,15,2,2,1,A,?,2,1,2126,0,14,40
33,15,3,2,1,K,F,2,1,2294,2,14,41
33,15,4,2,1,H,?,2,1,2118,0,14,42
33,16,2,1,1,C,?,3,1,2326,0,15,43
33,16,3,1,1,F,?,3,1,2334,0,15,44
33,16,4,1,1,K,?,3,1,2494,1,15,45
33,17,2,1,1,L,?,2,1,2382,0,16,46
33,17,3,1,1,I,?,2,1,2710,1,16,47
33,17,4,1,1,G,?,2,1,2110,0,16,48
33,1,2,2,2,O,?,2,1,2599,0,1,49
33,1,3,2,2,I,B,2,1,2383,2,1,50
33,1,4,2,2,P,?,2,1,2343,0,1,51
33,2,2,1,2,M,?,1,1,2631,1,2,52
33,2,3,1,2,E,?,1,1,2023,0,2,53
33,2,4,1,2,N,?,1,1,2236,0,2,54
33,3,2,1,2,A,?,2,1,2636,0,3,55
33,3,3,1,2,K,?,2,1,2188,1,3,56
33,3,4,1,2,D,?,2,1,2452,0,3,57
33,4,2,2,2,L,?,3,1,2140,0,4,58
33,4,3,2,2,N,?,3,1,2196,0,4,59
33,4,4,2,2,B,H,3,1,3100,2,4,60
33,5,2,2,2,P,?,2,1,2668,0,5,61
33,5,3,2,2,E,D,2,1,2188,2,5,62
33,5,4,2,2,K,?,2,1,2332,0,5,63
33,6,2,1,2,L,?,1,1,2684,1,6,64
33,6,3,1,2,A,?,1,1,2404,0,6,65
33,6,4,1,2,K,?,1,1,2028,0,6,66
33,7,2,2,2,A,?,3,1,2268,0,7,67
33,7,3,2,2,O,?,3,1,2236,0,7,68
33,7,4,2,2,F,H,3,1,2020,2,7,69
33,8,2,1,2,L,?,1,1,2572,1,8,70
33,8,3,1,2,E,?,1,1,3204,0,8,71
33,8,4,1,2,G,?,1,1,2324,0,8,72
33,9,2,2,2,D,?,2,1,2124,0,9,73
33,9,3,2,2,K,N,2,1,2140,2,9,74
33,9,4,2,2,M,?,2,1,2307,0,9,75
33,10,2,1,2,K,?,2,1,2236,0,10,76
33,10,3,1,2,E,?,2,1,2483,1,10,77
33,10,4,1,2,C,?,2,1,2067,0,10,78
33,11,2,2,2,L,O,1,1,2315,2,11,79
33,11,3,2,2,G,?,1,1,2323,0,11,80
33,11,4,2,2,F,?,1,1,2243,0,11,81
33,12,2,1,2,P,?,2,1,1995,0,12,82
33,12,3,1,2,I,?,2,1,2219,1,12,83
33,12,4,1,2,D,?,2,1,2451,0,12,84
33,13,2,2,2,M,L,1,1,2435,2,13,85
33,13,3,2,2,N,?,1,1,2115,0,13,86
33,13,4,2,2,C,?,1,1,2179,0,13,87
33,14,2,1,2,N,?,3,1,2259,0,14,88
33,14,3,1,2,E,?,3,1,2051,0,14,89
33,14,4,1,2,B,?,3,1,2163,1,14,90
33,15,2,1,2,D,?,3,1,2171,0,15,91
33,15,3,1,2,A,?,3,1,2124,0,15,92
33,15,4,1,2,F,?,3,1,2212,1,15,93
33,16,2,2,2,L,N,1,1,2908,2,16,94
33,16,3,2,2,K,?,1,1,2108,0,16,95
33,16,4,2,2,C,?,1,1,2172,0,16,96
34,2,2,2,1,D,?,2,1,2288,0,1,1
34,2,3,2,1,M,P,2,0,2664,2,1,2
